	Manipulation	d ecrasement	Filename	cristallisation_sel_2025-18-06.dat	Date	18/6/2025	Time	09:27:15 s	Remarque	ecrasement de  .... d'une epaisseur de 	TempsEntreMesure	60.000 s	TempsRelaxation	0.000 s	CourseTotal	0.000 mm	NbrEcrasement	0



Temps(s)	Position(mm)	Force(g)	Mouvement(0 ou 1)	Résistance(ohm)
0.020	0.000	0.000	0	0.000
30.048	0.000	0.000	0	0.000
90.008	0.000	-0.006	0	0.000
150.042	0.000	0.007	0	0.000
210.046	0.000	0.019	0	0.000
270.018	0.000	0.019	0	0.000
330.018	0.000	0.016	0	0.000
390.040	0.000	0.033	0	0.000
450.074	0.000	0.040	0	0.000
510.046	0.000	0.030	0	0.000
570.039	0.000	0.042	0	0.000
630.057	0.000	0.052	0	0.000
690.030	0.000	0.068	0	0.000
750.014	0.000	0.054	0	0.000
810.027	0.000	0.060	0	0.000
870.026	0.000	0.073	0	0.000
930.013	0.000	0.079	0	0.000
990.032	0.000	0.077	0	0.000
1050.030	0.000	0.088	0	0.000
1110.044	0.000	0.097	0	0.000
1170.055	0.000	0.096	0	0.000
1230.023	0.000	0.096	0	0.000
1290.018	0.000	0.113	0	0.000
1350.049	0.000	0.120	0	0.000
1410.068	0.000	0.113	0	0.000
1470.066	0.000	0.118	0	0.000
1530.065	0.000	0.131	0	0.000
1590.037	0.000	0.139	0	0.000
1650.041	0.000	0.131	0	0.000
1710.069	0.000	0.137	0	0.000
1770.048	0.000	0.150	0	0.000
1830.055	0.000	0.159	0	0.000
1890.044	0.000	0.153	0	0.000
1950.027	0.000	0.161	0	0.000
2010.058	0.000	0.174	0	0.000
2070.063	0.000	0.178	0	0.000
2130.032	0.000	0.176	0	0.000
2190.030	0.000	0.188	0	0.000
2250.046	0.000	0.200	0	0.000
2310.026	0.000	0.191	0	0.000
2370.033	0.000	0.196	0	0.000
2430.053	0.000	0.208	0	0.000
2490.034	0.000	0.219	0	0.000
2550.019	0.000	0.210	0	0.000
2610.026	0.000	0.216	0	0.000
2670.036	0.000	0.229	0	0.000
2730.027	0.000	0.225	0	0.000
2790.019	0.000	0.233	0	0.000
2850.051	0.000	0.240	0	0.000
2910.051	0.000	0.250	0	0.000
2970.045	0.000	0.244	0	0.000
3030.047	0.000	0.259	0	0.000
3090.049	0.000	0.266	0	0.000
3150.038	0.000	0.272	0	0.000
3210.038	0.000	0.270	0	0.000
3270.035	0.000	0.275	0	0.000
3330.042	0.000	0.290	0	0.000
3390.066	0.000	0.294	0	0.000
3450.036	0.000	0.282	0	0.000
3510.043	0.000	0.298	0	0.000
3570.065	0.000	0.313	0	0.000
3630.059	0.000	0.306	0	0.000
3690.072	0.000	0.309	0	0.000
3750.071	0.000	0.324	0	0.000
3810.068	0.000	0.333	0	0.000
3870.052	0.000	0.325	0	0.000
3930.025	0.000	0.336	0	0.000
3990.011	0.000	0.350	0	0.000
4050.011	0.000	0.347	0	0.000
4110.028	0.000	0.342	0	0.000
4170.027	0.000	0.355	0	0.000
4230.014	0.000	0.364	0	0.000
4290.029	0.000	0.365	0	0.000
4350.045	0.000	0.366	0	0.000
4410.062	0.000	0.380	0	0.000
4470.077	0.000	0.390	0	0.000
4530.081	0.000	0.380	0	0.000
4590.049	0.000	0.388	0	0.000
4650.033	0.000	0.400	0	0.000
4710.050	0.000	0.408	0	0.000
4770.029	0.000	0.400	0	0.000
4830.012	0.000	0.406	0	0.000
4890.011	0.000	0.420	0	0.000
4950.013	0.000	0.426	0	0.000
5010.037	0.000	0.423	0	0.000
5070.050	0.000	0.432	0	0.000
5130.041	0.000	0.445	0	0.000
5190.031	0.000	0.444	0	0.000
5250.038	0.000	0.447	0	0.000
5310.040	0.000	0.455	0	0.000
5370.044	0.000	0.464	0	0.000
5430.071	0.000	0.460	0	0.000
5490.041	0.000	0.472	0	0.000
5550.018	0.000	0.483	0	0.000
5610.037	0.000	0.486	0	0.000
5670.037	0.000	0.484	0	0.000
5730.024	0.000	0.494	0	0.000
5790.046	0.000	0.507	0	0.000
5850.035	0.000	0.503	0	0.000
5910.027	0.000	0.503	0	0.000
5970.057	0.000	0.518	0	0.000
6030.049	0.000	0.525	0	0.000
6090.043	0.000	0.516	0	0.000
6150.055	0.000	0.521	0	0.000
6210.030	0.000	0.537	0	0.000
6270.011	0.000	0.540	0	0.000
6330.036	0.000	0.540	0	0.000
6390.063	0.000	0.542	0	0.000
6450.055	0.000	0.554	0	0.000
6510.029	0.000	0.560	0	0.000
6570.029	0.000	0.557	0	0.000
6630.036	0.000	0.564	0	0.000
6690.053	0.000	0.580	0	0.000
6750.057	0.000	0.577	0	0.000
6810.024	0.000	0.572	0	0.000
6870.024	0.000	0.583	0	0.000
6930.026	0.000	0.594	0	0.000
6990.025	0.000	0.594	0	0.000
7050.052	0.000	0.598	0	0.000
7110.069	0.000	0.604	0	0.000
7170.054	0.000	0.617	0	0.000
7230.043	0.000	0.613	0	0.000
7290.060	0.000	0.618	0	0.000
7350.062	0.000	0.627	0	0.000
7410.032	0.000	0.632	0	0.000
7470.031	0.000	0.630	0	0.000
7530.053	0.000	0.638	0	0.000
7590.055	0.000	0.654	0	0.000
7650.030	0.000	0.656	0	0.000
7710.029	0.000	0.650	0	0.000
7770.051	0.000	0.667	0	0.000
7830.038	0.000	0.671	0	0.000
7890.037	0.000	0.674	0	0.000
7950.057	0.000	0.668	0	0.000
8010.044	0.000	0.681	0	0.000
8070.031	0.000	0.693	0	0.000
8130.045	0.000	0.689	0	0.000
8190.037	0.000	0.692	0	0.000
8250.012	0.000	0.704	0	0.000
8310.044	0.000	0.714	0	0.000
8370.038	0.000	0.703	0	0.000
8430.035	0.000	0.715	0	0.000
8490.052	0.000	0.727	0	0.000
8550.022	0.000	0.730	0	0.000
8610.011	0.000	0.723	0	0.000
8670.038	0.000	0.736	0	0.000
8730.065	0.000	0.743	0	0.000
8790.040	0.000	0.748	0	0.000
8850.039	0.000	0.744	0	0.000
8910.061	0.000	0.754	0	0.000
8970.038	0.000	0.764	0	0.000
9030.028	0.000	0.767	0	0.000
9090.057	0.000	0.761	0	0.000
9150.069	0.000	0.777	0	0.000
9210.076	0.000	0.783	0	0.000
9270.076	0.000	0.782	0	0.000
9330.072	0.000	0.786	0	0.000
9390.050	0.000	0.795	0	0.000
9450.029	0.000	0.808	0	0.000
9510.029	0.000	0.801	0	0.000
9570.030	0.000	0.808	0	0.000
9630.055	0.000	0.820	0	0.000
9690.037	0.000	0.829	0	0.000
9750.012	0.000	0.821	0	0.000
9810.028	0.000	0.834	0	0.000
9870.061	0.000	0.840	0	0.000
9930.075	0.000	0.840	0	0.000
9990.042	0.000	0.847	0	0.000
10050.034	0.000	0.850	0	0.000
10110.038	0.000	0.861	0	0.000
10170.018	0.000	0.860	0	0.000
10230.040	0.000	0.864	0	0.000
10290.057	0.000	0.872	0	0.000
10350.041	0.000	0.885	0	0.000
10410.031	0.000	0.878	0	0.000
10470.032	0.000	0.883	0	0.000
10530.032	0.000	0.894	0	0.000
10590.044	0.000	0.904	0	0.000
10650.059	0.000	0.896	0	0.000
10710.040	0.000	0.904	0	0.000
10770.050	0.000	0.914	0	0.000
10830.067	0.000	0.920	0	0.000
10890.074	0.000	0.914	0	0.000
10950.048	0.000	0.929	0	0.000
11010.026	0.000	0.930	0	0.000
11070.050	0.000	0.936	0	0.000
11130.070	0.000	0.934	0	0.000
11190.061	0.000	0.941	0	0.000
11250.069	0.000	0.954	0	0.000
11310.048	0.000	0.960	0	0.000
11370.023	0.000	0.951	0	0.000
11430.029	0.000	0.964	0	0.000
11490.032	0.000	0.975	0	0.000
11550.021	0.000	0.978	0	0.000
11610.026	0.000	0.972	0	0.000
11670.022	0.000	0.989	0	0.000
11730.035	0.000	0.993	0	0.000
11790.064	0.000	0.997	0	0.000
11850.048	0.000	0.990	0	0.000
11910.030	0.000	1.005	0	0.000
11970.057	0.000	1.020	0	0.000
12030.047	0.000	1.016	0	0.000
12090.048	0.000	1.011	0	0.000
12150.068	0.000	1.020	0	0.000
12210.037	0.000	1.031	0	0.000
12270.045	0.000	1.039	0	0.000
12330.049	0.000	1.032	0	0.000
12390.021	0.000	1.044	0	0.000
12450.018	0.000	1.056	0	0.000
12510.043	0.000	1.058	0	0.000
12570.042	0.000	1.051	0	0.000
12630.024	0.000	1.065	0	0.000
12690.041	0.000	1.077	0	0.000
12750.041	0.000	1.077	0	0.000
12810.037	0.000	1.071	0	0.000
12870.027	0.000	1.088	0	0.000
12930.034	0.000	1.098	0	0.000
12990.034	0.000	1.095	0	0.000
13050.020	0.000	1.093	0	0.000
13110.034	0.000	1.104	0	0.000
13170.037	0.000	1.110	0	0.000
13230.037	0.000	1.110	0	0.000
13290.053	0.000	1.110	0	0.000
13350.047	0.000	1.122	0	0.000
13410.025	0.000	1.133	0	0.000
13470.035	0.000	1.129	0	0.000
13530.061	0.000	1.129	0	0.000
13590.070	0.000	1.140	0	0.000
13650.043	0.000	1.151	0	0.000
13710.042	0.000	1.144	0	0.000
13770.069	0.000	1.147	0	0.000
13830.038	0.000	1.149	0	0.000
13890.013	0.000	1.153	0	0.000
13950.025	0.000	1.150	0	0.000
14010.047	0.000	1.152	0	0.000
14070.066	0.000	1.161	0	0.000
14130.069	0.000	1.176	0	0.000
14190.043	0.000	1.163	0	0.000
14250.030	0.000	1.170	0	0.000
14310.059	0.000	1.185	0	0.000
14370.062	0.000	1.192	0	0.000
14430.046	0.000	1.186	0	0.000
14490.057	0.000	1.196	0	0.000
14550.065	0.000	1.203	0	0.000
14610.035	0.000	1.210	0	0.000
14670.044	0.000	1.201	0	0.000
14730.040	0.000	1.209	0	0.000
14790.010	0.000	1.218	0	0.000
14850.013	0.000	1.226	0	0.000
14910.012	0.000	1.215	0	0.000
14970.013	0.000	1.226	0	0.000
15030.043	0.000	1.241	0	0.000
15090.071	0.000	1.249	0	0.000
15150.050	0.000	1.240	0	0.000
15210.021	0.000	1.249	0	0.000
15270.016	0.000	1.260	0	0.000
15330.049	0.000	1.266	0	0.000
15390.063	0.000	1.261	0	0.000
15450.059	0.000	1.274	0	0.000
15510.072	0.000	1.276	0	0.000
15570.067	0.000	1.290	0	0.000
15630.041	0.000	1.280	0	0.000
15690.027	0.000	1.287	0	0.000
15750.056	0.000	1.300	0	0.000
15810.075	0.000	1.305	0	0.000
15870.049	0.000	1.298	0	0.000
15930.030	0.000	1.307	0	0.000
15990.033	0.000	1.317	0	0.000
16050.047	0.000	1.321	0	0.000
16110.062	0.000	1.313	0	0.000
16170.063	0.000	1.325	0	0.000
16230.051	0.000	1.325	0	0.000
16290.042	0.000	1.336	0	0.000
16350.070	0.000	1.331	0	0.000
16410.056	0.000	1.335	0	0.000
16470.030	0.000	1.348	0	0.000
16530.043	0.000	1.356	0	0.000
16590.073	0.000	1.350	0	0.000
16650.059	0.000	1.360	0	0.000
16710.032	0.000	1.363	0	0.000
16770.031	0.000	1.372	0	0.000
16830.031	0.000	1.364	0	0.000
16890.041	0.000	1.377	0	0.000
16950.040	0.000	1.390	0	0.000
17010.024	0.000	1.388	0	0.000
17070.065	0.000	1.385	0	0.000
17130.064	0.000	1.397	0	0.000
17190.042	0.000	1.405	0	0.000
17250.062	0.000	1.406	0	0.000
17310.066	0.000	1.404	0	0.000
17370.042	0.000	1.415	0	0.000
17430.030	0.000	1.424	0	0.000
17490.035	0.000	1.423	0	0.000
17550.031	0.000	1.421	0	0.000
17610.040	0.000	1.430	0	0.000
17670.043	0.000	1.436	0	0.000
17730.018	0.000	1.444	0	0.000
17790.032	0.000	1.442	0	0.000
17850.023	0.000	1.453	0	0.000
17910.016	0.000	1.462	0	0.000
17970.036	0.000	1.463	0	0.000
18030.030	0.000	1.459	0	0.000
18090.041	0.000	1.466	0	0.000
18150.044	0.000	1.477	0	0.000
18210.044	0.000	1.473	0	0.000
18270.039	0.000	1.476	0	0.000
18330.014	0.000	1.489	0	0.000
18390.022	0.000	1.496	0	0.000
18450.022	0.000	1.492	0	0.000
18510.032	0.000	1.492	0	0.000
18570.047	0.000	1.508	0	0.000
18630.065	0.000	1.514	0	0.000
18690.070	0.000	1.512	0	0.000
18750.040	0.000	1.510	0	0.000
18810.020	0.000	1.526	0	0.000
18870.043	0.000	1.534	0	0.000
18930.058	0.000	1.526	0	0.000
18990.028	0.000	1.529	0	0.000
19050.013	0.000	1.541	0	0.000
19110.021	0.000	1.552	0	0.000
19170.040	0.000	1.546	0	0.000
19230.046	0.000	1.546	0	0.000
19290.041	0.000	1.559	0	0.000
19350.044	0.000	1.570	0	0.000
19410.063	0.000	1.566	0	0.000
19470.059	0.000	1.562	0	0.000
19530.038	0.000	1.580	0	0.000
19590.032	0.000	1.585	0	0.000
19650.051	0.000	1.582	0	0.000
19710.072	0.000	1.586	0	0.000
19770.060	0.000	1.592	0	0.000
19830.050	0.000	1.602	0	0.000
19890.059	0.000	1.595	0	0.000
19950.055	0.000	1.600	0	0.000
20010.054	0.000	1.618	0	0.000
20070.048	0.000	1.619	0	0.000
20130.037	0.000	1.610	0	0.000
20190.043	0.000	1.620	0	0.000
20250.061	0.000	1.630	0	0.000
20310.046	0.000	1.640	0	0.000
20370.030	0.000	1.628	0	0.000
20430.061	0.000	1.643	0	0.000
20490.079	0.000	1.651	0	0.000
20550.059	0.000	1.657	0	0.000
20610.043	0.000	1.645	0	0.000
20670.039	0.000	1.651	0	0.000
20730.058	0.000	1.659	0	0.000
20790.072	0.000	1.672	0	0.000
20850.056	0.000	1.665	0	0.000
20910.031	0.000	1.667	0	0.000
20970.016	0.000	1.681	0	0.000
21030.034	0.000	1.686	0	0.000
21090.034	0.000	1.680	0	0.000
21150.029	0.000	1.684	0	0.000
21210.034	0.000	1.696	0	0.000
21270.052	0.000	1.703	0	0.000
21330.062	0.000	1.697	0	0.000
21390.032	0.000	1.703	0	0.000
21450.051	0.000	1.713	0	0.000
21510.060	0.000	1.722	0	0.000
21570.035	0.000	1.713	0	0.000
21630.045	0.000	1.722	0	0.000
21690.045	0.000	1.728	0	0.000
21750.023	0.000	1.736	0	0.000
21810.048	0.000	1.730	0	0.000
21870.058	0.000	1.732	0	0.000
21930.048	0.000	1.748	0	0.000
21990.036	0.000	1.750	0	0.000
22050.046	0.000	1.741	0	0.000
22110.066	0.000	1.750	0	0.000
22170.060	0.000	1.756	0	0.000
22230.054	0.000	1.763	0	0.000
22290.059	0.000	1.756	0	0.000
22350.054	0.000	1.770	0	0.000
22410.033	0.000	1.776	0	0.000
22470.022	0.000	1.779	0	0.000
22530.057	0.000	1.770	0	0.000
22590.052	0.000	1.782	0	0.000
22650.031	0.000	1.793	0	0.000
22710.030	0.000	1.796	0	0.000
22770.044	0.000	1.790	0	0.000
22830.065	0.000	1.798	0	0.000
22890.063	0.000	1.809	0	0.000
22950.053	0.000	1.810	0	0.000
23010.037	0.000	1.808	0	0.000
23070.018	0.000	1.817	0	0.000
23130.046	0.000	1.821	0	0.000
23190.061	0.000	1.827	0	0.000
23250.050	0.000	1.821	0	0.000
23310.060	0.000	1.830	0	0.000
23370.079	0.000	1.842	0	0.000
23430.054	0.000	1.843	0	0.000
23490.053	0.000	1.839	0	0.000
23550.058	0.000	1.847	0	0.000
23610.052	0.000	1.855	0	0.000
23670.057	0.000	1.855	0	0.000
23730.047	0.000	1.850	0	0.000
23790.056	0.000	1.855	0	0.000
23850.075	0.000	1.860	0	0.000
23910.060	0.000	1.871	0	0.000
23970.034	0.000	1.855	0	0.000
24030.034	0.000	1.869	0	0.000
24090.059	0.000	1.879	0	0.000
24150.063	0.000	1.880	0	0.000
24210.067	0.000	1.880	0	0.000
24270.042	0.000	1.882	0	0.000
24330.041	0.000	1.898	0	0.000
24390.070	0.000	1.890	0	0.000
24450.061	0.000	1.890	0	0.000
24510.050	0.000	1.895	0	0.000
24570.044	0.000	1.911	0	0.000
24630.033	0.000	1.905	0	0.000
24690.043	0.000	1.904	0	0.000
24750.058	0.000	1.910	0	0.000
24810.032	0.000	1.921	0	0.000
24870.051	0.000	1.921	0	0.000
24930.061	0.000	1.910	0	0.000
24990.031	0.000	1.928	0	0.000
25050.025	0.000	1.936	0	0.000
25110.034	0.000	1.935	0	0.000
25170.054	0.000	1.931	0	0.000
25230.059	0.000	1.942	0	0.000
25290.053	0.000	1.950	0	0.000
25350.052	0.000	1.947	0	0.000
25410.047	0.000	1.947	0	0.000
25470.037	0.000	1.956	0	0.000
25530.056	0.000	1.965	0	0.000
25590.050	0.000	1.962	0	0.000
25650.015	0.000	1.956	0	0.000
25710.035	0.000	1.971	0	0.000
25770.069	0.000	1.982	0	0.000
25830.318	0.000	1.974	0	0.000
25890.313	0.000	1.977	0	0.000
25950.072	0.000	1.986	0	0.000
26010.042	0.000	1.990	0	0.000
26070.016	0.000	1.994	0	0.000
26130.035	0.000	1.987	0	0.000
26190.040	0.000	1.993	0	0.000
26250.045	0.000	2.008	0	0.000
26310.064	0.000	2.004	0	0.000
26370.039	0.000	2.004	0	0.000
26430.038	0.000	2.011	0	0.000
26490.062	0.000	2.023	0	0.000
26550.047	0.000	2.017	0	0.000
26610.052	0.000	2.019	0	0.000
26670.046	0.000	2.031	0	0.000
26730.025	0.000	2.035	0	0.000
26790.045	0.000	2.031	0	0.000
26850.055	0.000	2.031	0	0.000
26910.059	0.000	2.038	0	0.000
26970.068	0.000	2.053	0	0.000
27030.043	0.000	2.039	0	0.000
27090.033	0.000	2.048	0	0.000
27150.047	0.000	2.050	0	0.000
27210.036	0.000	2.057	0	0.000
27270.016	0.000	2.056	0	0.000
27330.025	0.000	2.058	0	0.000
27390.055	0.000	2.066	0	0.000
27450.049	0.000	2.074	0	0.000
27510.059	0.000	2.070	0	0.000
27570.043	0.000	2.066	0	0.000
27630.018	0.000	2.078	0	0.000
27690.037	0.000	2.090	0	0.000
27750.067	0.000	2.081	0	0.000
27810.066	0.000	2.080	0	0.000
27870.051	0.000	2.087	0	0.000
27930.050	0.000	2.099	0	0.000
27990.069	0.000	2.098	0	0.000
28050.059	0.000	2.103	0	0.000
28110.039	0.000	2.119	0	0.000
28170.053	0.000	2.126	0	0.000
28230.052	0.000	2.133	0	0.000
28290.027	0.000	2.130	0	0.000
28350.037	0.000	2.142	0	0.000
28410.066	0.000	2.155	0	0.000
28470.050	0.000	2.150	0	0.000
28530.020	0.000	2.157	0	0.000
28590.039	0.000	2.171	0	0.000
28650.054	0.000	2.177	0	0.000
28710.068	0.000	2.169	0	0.000
28770.063	0.000	2.174	0	0.000
28830.057	0.000	2.190	0	0.000
28890.047	0.000	2.200	0	0.000
28950.036	0.000	2.189	0	0.000
29010.061	0.000	2.196	0	0.000
29070.075	0.000	2.203	0	0.000
29130.065	0.000	2.212	0	0.000
29190.049	0.000	2.212	0	0.000
29250.064	0.000	2.211	0	0.000
29310.078	0.000	2.220	0	0.000
29370.058	0.000	2.227	0	0.000
29430.042	0.000	2.229	0	0.000
29490.042	0.000	2.226	0	0.000
29550.046	0.000	2.236	0	0.000
29610.081	0.000	2.248	0	0.000
29670.055	0.000	2.244	0	0.000
29730.045	0.000	2.245	0	0.000
29790.069	0.000	2.255	0	0.000
29850.049	0.000	2.265	0	0.000
29910.048	0.000	2.257	0	0.000
29970.042	0.000	2.260	0	0.000
30030.032	0.000	2.269	0	0.000
30090.066	0.000	2.281	0	0.000
30150.066	0.000	2.270	0	0.000
30210.035	0.000	2.274	0	0.000
30270.020	0.000	2.282	0	0.000
30330.024	0.000	2.294	0	0.000
30390.044	0.000	2.284	0	0.000
30450.038	0.000	2.288	0	0.000
30510.023	0.000	2.298	0	0.000
30570.027	0.000	2.303	0	0.000
30630.052	0.000	2.300	0	0.000
30690.046	0.000	2.300	0	0.000
30750.021	0.000	2.314	0	0.000
30810.040	0.000	2.320	0	0.000
30870.040	0.000	2.314	0	0.000
30930.019	0.000	2.317	0	0.000
30990.034	0.000	2.325	0	0.000
31050.053	0.000	2.331	0	0.000
31110.043	0.000	2.327	0	0.000
31170.047	0.000	2.330	0	0.000
31230.041	0.000	2.336	0	0.000
31290.026	0.000	2.345	0	0.000
31350.041	0.000	2.344	0	0.000
31410.030	0.000	2.336	0	0.000
31470.029	0.000	2.347	0	0.000
31530.039	0.000	2.360	0	0.000
31590.033	0.000	2.354	0	0.000
31650.053	0.000	2.352	0	0.000
31710.047	0.000	2.360	0	0.000
31770.052	0.000	2.372	0	0.000
31830.051	0.000	2.359	0	0.000
31890.046	0.000	2.371	0	0.000
31950.075	0.000	2.376	0	0.000
32010.050	0.000	2.382	0	0.000
32070.024	0.000	2.369	0	0.000
32130.039	0.000	2.374	0	0.000
32190.058	0.000	2.379	0	0.000
32250.073	0.000	2.386	0	0.000
32310.057	0.000	2.372	0	0.000
32370.047	0.000	2.378	0	0.000
32430.061	0.000	2.386	0	0.000
32490.056	0.000	2.391	0	0.000
32550.065	0.000	2.383	0	0.000
32610.049	0.000	2.384	0	0.000
32670.049	0.000	2.392	0	0.000
32730.069	0.000	2.400	0	0.000
32790.058	0.000	2.397	0	0.000
32850.042	0.000	2.394	0	0.000
32910.042	0.000	2.401	0	0.000
32970.067	0.000	2.414	0	0.000
33030.066	0.000	2.408	0	0.000
33090.050	0.000	2.407	0	0.000
33150.060	0.000	2.417	0	0.000
33210.055	0.000	2.420	0	0.000
33270.044	0.000	2.408	0	0.000
33330.063	0.000	2.415	0	0.000
33390.068	0.000	2.424	0	0.000
33450.063	0.000	2.433	0	0.000
33510.072	0.000	2.418	0	0.000
33570.066	0.000	2.412	0	0.000
33630.040	0.000	2.429	0	0.000
33690.045	0.000	2.437	0	0.000
33750.075	0.000	2.431	0	0.000
33810.064	0.000	2.433	0	0.000
33870.063	0.000	2.434	0	0.000
33930.073	0.000	2.449	0	0.000
33990.043	0.000	2.437	0	0.000
34050.012	0.000	2.439	0	0.000
34110.046	0.000	2.454	0	0.000
34170.076	0.000	2.455	0	0.000
34230.056	0.000	2.446	0	0.000
34290.045	0.000	2.447	0	0.000
34350.039	0.000	2.458	0	0.000
34410.039	0.000	2.466	0	0.000
34470.059	0.000	2.457	0	0.000
34530.058	0.000	2.458	0	0.000
34590.052	0.000	2.465	0	0.000
34650.032	0.000	2.476	0	0.000
34710.037	0.000	2.470	0	0.000
34770.061	0.000	2.468	0	0.000
34830.050	0.000	2.476	0	0.000
34890.030	0.000	2.488	0	0.000
34950.025	0.000	2.480	0	0.000
35010.008	0.000	2.478	0	0.000
35070.013	0.000	2.491	0	0.000
35130.053	0.000	2.496	0	0.000
35190.042	0.000	2.482	0	0.000
35250.036	0.000	2.493	0	0.000
35310.036	0.000	2.491	0	0.000
35370.010	0.000	2.505	0	0.000
35430.031	0.000	2.498	0	0.000
35490.024	0.000	2.496	0	0.000
35550.034	0.000	2.506	0	0.000
35610.059	0.000	2.516	0	0.000
35670.048	0.000	2.506	0	0.000
35730.022	0.000	2.509	0	0.000
35790.047	0.000	2.516	0	0.000
35850.057	0.000	2.532	0	0.000
35910.021	0.000	2.520	0	0.000
35970.040	0.000	2.512	0	0.000
36030.060	0.000	2.521	0	0.000
36090.034	0.000	2.539	0	0.000
36150.044	0.000	2.533	0	0.000
36210.063	0.000	2.519	0	0.000
36270.047	0.000	2.530	0	0.000
36330.042	0.000	2.541	0	0.000
36390.047	0.000	2.530	0	0.000
36450.021	0.000	2.530	0	0.000
36510.035	0.000	2.542	0	0.000
36570.046	0.000	2.550	0	0.000
36630.045	0.000	2.549	0	0.000
36690.029	0.000	2.540	0	0.000
36750.033	0.000	2.550	0	0.000
36810.068	0.000	2.559	0	0.000
36870.053	0.000	2.552	0	0.000
36930.032	0.000	2.548	0	0.000
36990.046	0.000	2.568	0	0.000
37050.032	0.000	2.568	0	0.000
37110.046	0.000	2.566	0	0.000
37170.055	0.000	2.562	0	0.000
37230.054	0.000	2.567	0	0.000
37290.064	0.000	2.578	0	0.000
37350.034	0.000	2.576	0	0.000
37410.013	0.000	2.565	0	0.000
37470.047	0.000	2.581	0	0.000
37530.072	0.000	2.586	0	0.000
37590.052	0.000	2.591	0	0.000
37650.061	0.000	2.580	0	0.000
37710.055	0.000	2.587	0	0.000
37770.054	0.000	2.594	0	0.000
37830.075	0.000	2.595	0	0.000
37890.059	0.000	2.589	0	0.000
37950.048	0.000	2.596	0	0.000
38010.068	0.000	2.597	0	0.000
38070.078	0.000	2.602	0	0.000
38130.062	0.000	2.588	0	0.000
38190.026	0.000	2.602	0	0.000
38250.040	0.000	2.614	0	0.000
38310.081	0.000	2.608	0	0.000
38370.039	0.000	2.599	0	0.000
38430.039	0.000	2.616	0	0.000
38490.044	0.000	2.621	0	0.000
38550.019	0.000	2.619	0	0.000
38610.037	0.000	2.609	0	0.000
38670.042	0.000	2.623	0	0.000
38730.047	0.000	2.625	0	0.000
38790.042	0.000	2.625	0	0.000
38850.026	0.000	2.614	0	0.000
38910.034	0.000	2.629	0	0.000
38970.045	0.000	2.640	0	0.000
39030.059	0.000	2.638	0	0.000
39090.058	0.000	2.622	0	0.000
39150.057	0.000	2.636	0	0.000
39210.067	0.000	2.640	0	0.000
39270.048	0.000	2.648	0	0.000
39330.033	0.000	2.632	0	0.000
39390.025	0.000	2.641	0	0.000
39450.035	0.000	2.650	0	0.000
39510.051	0.000	2.653	0	0.000
39570.055	0.000	2.636	0	0.000
39630.028	0.000	2.643	0	0.000
39690.028	0.000	2.652	0	0.000
39750.027	0.000	2.659	0	0.000
39810.038	0.000	2.642	0	0.000
39870.056	0.000	2.651	0	0.000
39930.056	0.000	2.658	0	0.000
39990.045	0.000	2.664	0	0.000
40050.046	0.000	2.649	0	0.000
40110.054	0.000	2.658	0	0.000
40170.038	0.000	2.670	0	0.000
40230.029	0.000	2.672	0	0.000
40290.029	0.000	2.657	0	0.000
40350.022	0.000	2.662	0	0.000
40410.026	0.000	2.669	0	0.000
40470.051	0.000	2.679	0	0.000
40530.072	0.000	2.661	0	0.000
40590.040	0.000	2.666	0	0.000
40650.024	0.000	2.671	0	0.000
40710.024	0.000	2.674	0	0.000
40770.023	0.000	2.663	0	0.000
40830.048	0.000	2.659	0	0.000
40890.067	0.000	2.664	0	0.000
40950.057	0.000	2.671	0	0.000
41010.026	0.000	2.653	0	0.000
41070.016	0.000	2.663	0	0.000
41130.055	0.000	2.664	0	0.000
41190.070	0.000	2.670	0	0.000
41250.069	0.000	2.654	0	0.000
41310.078	0.000	2.652	0	0.000
41370.053	0.000	2.659	0	0.000
41430.052	0.000	2.660	0	0.000
41490.062	0.000	2.649	0	0.000
41550.036	0.000	2.644	0	0.000
41610.036	0.000	2.654	0	0.000
41670.060	0.000	2.659	0	0.000
41730.065	0.000	2.646	0	0.000
41790.064	0.000	2.648	0	0.000
41850.064	0.000	2.657	0	0.000
41910.033	0.000	2.671	0	0.000
41970.018	0.000	2.653	0	0.000
42030.032	0.000	2.655	0	0.000
42090.027	0.000	2.660	0	0.000
42150.031	0.000	2.657	0	0.000
42210.056	0.000	2.640	0	0.000
42270.070	0.000	2.642	0	0.000
42330.065	0.000	2.656	0	0.000
42390.034	0.000	2.663	0	0.000
42450.039	0.000	2.642	0	0.000
42510.053	0.000	2.643	0	0.000
42570.048	0.000	2.649	0	0.000
42630.062	0.000	2.664	0	0.000
42690.051	0.000	2.652	0	0.000
42750.051	0.000	2.640	0	0.000
42810.050	0.000	2.648	0	0.000
42870.040	0.000	2.653	0	0.000
42930.064	0.000	2.640	0	0.000
42990.049	0.000	2.635	0	0.000
43050.043	0.000	2.642	0	0.000
43110.043	0.000	2.645	0	0.000
43170.052	0.000	2.638	0	0.000
43230.052	0.000	2.622	0	0.000
43290.011	0.000	2.633	0	0.000
43350.011	0.000	2.648	0	0.000
43410.035	0.000	2.641	0	0.000
43470.065	0.000	2.630	0	0.000
43530.059	0.000	2.641	0	0.000
43590.024	0.000	2.640	0	0.000
43650.033	0.000	2.630	0	0.000
43710.068	0.000	2.627	0	0.000
43770.067	0.000	2.635	0	0.000
43830.042	0.000	2.639	0	0.000
43890.051	0.000	2.663	0	0.000
43950.055	0.000	2.645	0	0.000
44010.030	0.000	2.638	0	0.000
44070.024	0.000	2.636	0	0.000
44130.014	0.000	2.633	0	0.000
44190.013	0.000	2.624	0	0.000
44250.023	0.000	2.643	0	0.000
44310.037	0.000	2.653	0	0.000
44370.052	0.000	2.661	0	0.000
44430.026	0.000	2.632	0	0.000
44490.011	0.000	2.637	0	0.000
44550.035	0.000	2.650	0	0.000
44610.040	0.000	2.645	0	0.000
44670.039	0.000	2.636	0	0.000
44730.049	0.000	2.640	0	0.000
44790.048	0.000	2.649	0	0.000
44850.038	0.000	2.655	0	0.000
44910.042	0.000	2.637	0	0.000
44970.067	0.000	2.658	0	0.000
45030.051	0.000	2.657	0	0.000
45090.041	0.000	2.649	0	0.000
45150.040	0.000	2.637	0	0.000
45210.029	0.000	2.642	0	0.000
45270.029	0.000	2.654	0	0.000
45330.023	0.000	2.657	0	0.000
45390.013	0.000	2.632	0	0.000
45450.027	0.000	2.647	0	0.000
45510.052	0.000	2.665	0	0.000
45570.026	0.000	2.652	0	0.000
45630.011	0.000	2.630	0	0.000
45690.035	0.000	2.642	0	0.000
45750.065	0.000	2.654	0	0.000
45810.079	0.000	2.644	0	0.000
45870.079	0.000	2.620	0	0.000
45930.053	0.000	2.620	0	0.000
45990.038	0.000	2.646	0	0.000
46050.032	0.000	2.638	0	0.000
46110.027	0.000	2.627	0	0.000
46170.056	0.000	2.644	0	0.000
46230.041	0.000	2.633	0	0.000
46290.005	0.000	2.645	0	0.000
46350.015	0.000	2.638	0	0.000
46410.039	0.000	2.627	0	0.000
46470.053	0.000	2.632	0	0.000
46530.058	0.000	2.658	0	0.000
46590.032	0.000	2.642	0	0.000
46650.012	0.000	2.636	0	0.000
46710.041	0.000	2.639	0	0.000
46770.031	0.000	2.645	0	0.000
46830.030	0.000	2.634	0	0.000
46890.045	0.000	2.635	0	0.000
46950.019	0.000	2.633	0	0.000
47010.034	0.000	2.664	0	0.000
47070.043	0.000	2.634	0	0.000
47130.043	0.000	2.624	0	0.000
47190.067	0.000	2.634	0	0.000
47250.067	0.000	2.647	0	0.000
47310.056	0.000	2.635	0	0.000
47370.046	0.000	2.615	0	0.000
47430.020	0.000	2.620	0	0.000
47490.005	0.000	2.632	0	0.000
47550.024	0.000	2.635	0	0.000
47610.024	0.000	2.620	0	0.000
47670.003	0.000	2.636	0	0.000
47730.023	0.000	2.659	0	0.000
47790.037	0.000	2.629	0	0.000
47850.016	0.000	2.622	0	0.000
47910.026	0.000	2.631	0	0.000
47970.050	0.000	2.631	0	0.000
48030.035	0.000	2.611	0	0.000
48090.034	0.000	2.611	0	0.000
48150.049	0.000	2.633	0	0.000
48210.028	0.000	2.636	0	0.000
48270.028	0.000	2.618	0	0.000
48330.042	0.000	2.634	0	0.000
48390.047	0.000	2.638	0	0.000
48450.031	0.000	2.623	0	0.000
48510.006	0.000	2.621	0	0.000
48570.005	0.000	2.624	0	0.000
48630.040	0.000	2.636	0	0.000
48690.054	0.000	2.644	0	0.000
48750.019	0.000	2.623	0	0.000
48810.013	0.000	2.613	0	0.000
48870.013	0.000	2.619	0	0.000
48930.012	0.000	2.641	0	0.000
48990.012	0.000	2.619	0	0.000
49050.001	0.000	2.605	0	0.000
49110.020	0.000	2.621	0	0.000
49170.035	0.000	2.643	0	0.000
49230.054	0.000	2.622	0	0.000
49290.064	0.000	2.628	0	0.000
49350.038	0.000	2.624	0	0.000
49410.053	0.000	2.617	0	0.000
49470.042	0.000	2.620	0	0.000
49530.042	0.000	2.609	0	0.000
49590.071	0.000	2.638	0	0.000
49650.061	0.000	2.625	0	0.000
49710.045	0.000	2.615	0	0.000
49770.030	0.000	2.605	0	0.000
49830.039	0.000	2.622	0	0.000
49890.029	0.000	2.628	0	0.000
49950.003	0.000	2.627	0	0.000
50010.043	0.000	2.597	0	0.000
50070.042	0.000	2.609	0	0.000
50130.027	0.000	2.607	0	0.000
50190.051	0.000	2.622	0	0.000
50250.041	0.000	2.611	0	0.000
50310.055	0.000	2.624	0	0.000
50370.079	0.000	2.614	0	0.000
50430.069	0.000	2.619	0	0.000
50490.053	0.000	2.602	0	0.000
50550.038	0.000	2.623	0	0.000
50610.042	0.000	2.603	0	0.000
50670.042	0.000	2.612	0	0.000
50730.026	0.000	2.599	0	0.000
50790.041	0.000	2.611	0	0.000
50850.040	0.000	2.600	0	0.000
50910.055	0.000	2.608	0	0.000
50970.044	0.000	2.595	0	0.000
51030.004	0.000	2.620	0	0.000
51090.018	0.000	2.604	0	0.000
51150.033	0.000	2.596	0	0.000
51210.017	0.000	2.583	0	0.000
51270.017	0.000	2.606	0	0.000
51330.016	0.000	2.595	0	0.000
51390.021	0.000	2.603	0	0.000
51450.045	0.000	2.600	0	0.000
51510.050	0.000	2.589	0	0.000
51570.054	0.000	2.599	0	0.000
51630.043	0.000	2.600	0	0.000
51690.053	0.000	2.596	0	0.000
51750.082	0.000	2.587	0	0.000
51810.072	0.000	2.594	0	0.000
51870.031	0.000	2.616	0	0.000
51930.041	0.000	2.591	0	0.000
51990.075	0.000	2.578	0	0.000
52050.040	0.000	2.597	0	0.000
52110.019	0.000	2.587	0	0.000
52170.029	0.000	2.591	0	0.000
52230.018	0.000	2.569	0	0.000
52290.018	0.000	2.574	0	0.000
52350.017	0.000	2.597	0	0.000
52410.022	0.000	2.570	0	0.000
52470.016	0.000	2.573	0	0.000
52530.006	0.000	2.580	0	0.000
52590.015	0.000	2.594	0	0.000
52650.040	0.000	2.577	0	0.000
52710.069	0.000	2.580	0	0.000
52770.054	0.000	2.583	0	0.000
52830.053	0.000	2.578	0	0.000
52890.067	0.000	2.588	0	0.000
52950.067	0.000	2.575	0	0.000
53010.051	0.000	2.568	0	0.000
53070.031	0.000	2.583	0	0.000
53130.035	0.000	2.585	0	0.000
53190.020	0.000	2.563	0	0.000
53250.004	0.000	2.564	0	0.000
53310.009	0.000	2.570	0	0.000
53370.038	0.000	2.597	0	0.000
53430.068	0.000	2.567	0	0.000
53490.037	0.000	2.562	0	0.000
53550.002	0.000	2.566	0	0.000
53610.031	0.000	2.560	0	0.000
53670.061	0.000	2.534	0	0.000
53730.060	0.000	2.539	0	0.000
53790.035	0.000	2.557	0	0.000
53850.019	0.000	2.566	0	0.000
53910.024	0.000	2.544	0	0.000
53970.043	0.000	2.552	0	0.000
54030.063	0.000	2.588	0	0.000
54090.037	0.000	2.560	0	0.000
54150.021	0.000	2.526	0	0.000
54210.031	0.000	2.545	0	0.000
54270.020	0.000	2.539	0	0.000
54330.015	0.000	2.563	0	0.000
54390.014	0.000	2.550	0	0.000
54450.014	0.000	2.545	0	0.000
54510.028	0.000	2.548	0	0.000
54570.038	0.000	2.558	0	0.000
54630.037	0.000	2.528	0	0.000
54690.047	0.000	2.539	0	0.000
54750.051	0.000	2.552	0	0.000
54810.036	0.000	2.548	0	0.000
54870.020	0.000	2.524	0	0.000
54930.025	0.000	2.528	0	0.000
54990.044	0.000	2.529	0	0.000
55050.039	0.000	2.539	0	0.000
55110.043	0.000	2.531	0	0.000
55170.033	0.000	2.525	0	0.000
55230.022	0.000	2.530	0	0.000
55290.047	0.000	2.532	0	0.000
55350.056	0.000	2.528	0	0.000
55410.031	0.000	2.519	0	0.000
55470.030	0.000	2.538	0	0.000
55530.059	0.000	2.536	0	0.000
55590.034	0.000	2.509	0	0.000
55650.008	0.000	2.510	0	0.000
55710.038	0.000	2.524	0	0.000
55770.047	0.000	2.523	0	0.000
55830.047	0.000	2.517	0	0.000
55890.031	0.000	2.511	0	0.000
55950.031	0.000	2.537	0	0.000
56010.035	0.000	2.522	0	0.000
56070.010	0.000	2.516	0	0.000
56130.009	0.000	2.515	0	0.000
56190.019	0.000	2.527	0	0.000
56250.043	0.000	2.526	0	0.000
56310.033	0.000	2.509	0	0.000
56370.032	0.000	2.503	0	0.000
56430.047	0.000	2.506	0	0.000
56490.026	0.000	2.519	0	0.000
56550.011	0.000	2.499	0	0.000
56610.005	0.000	2.497	0	0.000
56670.019	0.000	2.518	0	0.000
56730.049	0.000	2.498	0	0.000
56790.033	0.000	2.495	0	0.000
56850.003	0.000	2.489	0	0.000
56910.002	0.000	2.520	0	0.000
56970.002	0.000	2.515	0	0.000
57030.031	0.000	2.514	0	0.000
57090.051	0.000	2.499	0	0.000
57150.025	0.000	2.502	0	0.000
57210.020	0.000	2.513	0	0.000
57270.019	0.000	2.507	0	0.000
57330.044	0.000	2.495	0	0.000
57390.043	0.000	2.502	0	0.000
57450.018	0.000	2.511	0	0.000
57510.027	0.000	2.510	0	0.000
57570.017	0.000	2.487	0	0.000
57630.031	0.000	2.484	0	0.000
57690.031	0.000	2.510	0	0.000
57750.035	0.000	2.492	0	0.000
57810.035	0.000	2.476	0	0.000
57870.019	0.000	2.505	0	0.000
57930.034	0.000	2.491	0	0.000
57990.033	0.000	2.508	0	0.000
58050.037	0.000	2.484	0	0.000
58110.037	0.000	2.500	0	0.000
58170.016	0.000	2.513	0	0.000
58230.016	0.000	2.487	0	0.000
58290.030	0.000	2.466	0	0.000
58350.020	0.000	2.480	0	0.000
58410.019	0.000	2.492	0	0.000
58470.019	0.000	2.497	0	0.000
58530.023	0.000	2.496	0	0.000
58590.038	0.000	2.482	0	0.000
58650.042	0.000	2.506	0	0.000
58710.032	0.000	2.494	0	0.000
58770.011	0.000	2.488	0	0.000
58830.026	0.000	2.482	0	0.000
58890.025	0.000	2.487	0	0.000
58950.020	0.000	2.493	0	0.000
59010.019	0.000	2.475	0	0.000
59070.004	0.000	2.473	0	0.000
59130.033	0.000	2.476	0	0.000
59190.038	0.000	2.497	0	0.000
59250.022	0.000	2.473	0	0.000
59310.021	0.000	2.486	0	0.000
59370.021	0.000	2.482	0	0.000
59430.030	0.000	2.492	0	0.000
59490.050	0.000	2.470	0	0.000
59550.064	0.000	2.479	0	0.000
59610.039	0.000	2.483	0	0.000
59670.043	0.000	2.505	0	0.000
59730.038	0.000	2.462	0	0.000
59790.032	0.000	2.476	0	0.000
59850.032	0.000	2.481	0	0.000
59910.036	0.000	2.496	0	0.000
59970.051	0.000	2.479	0	0.000
60030.035	0.000	2.481	0	0.000
60090.050	0.000	2.475	0	0.000
60150.049	0.000	2.490	0	0.000
60210.049	0.000	2.472	0	0.000
60270.063	0.000	2.481	0	0.000
60330.063	0.000	2.488	0	0.000
60390.032	0.000	2.491	0	0.000
60450.007	0.000	2.481	0	0.000
60510.021	0.000	2.475	0	0.000
60570.030	0.000	2.497	0	0.000
60630.045	0.000	2.497	0	0.000
60690.034	0.000	2.479	0	0.000
60750.039	0.000	2.464	0	0.000
60810.068	0.000	2.485	0	0.000
60870.053	0.000	2.483	0	0.000
60930.037	0.000	2.467	0	0.000
60990.052	0.000	2.467	0	0.000
61050.066	0.000	2.480	0	0.000
61110.056	0.000	2.486	0	0.000
61170.040	0.000	2.479	0	0.000
61230.035	0.000	2.471	0	0.000
61290.049	0.000	2.474	0	0.000
61350.049	0.000	2.481	0	0.000
61410.053	0.000	2.481	0	0.000
61470.053	0.000	2.484	0	0.000
61530.037	0.000	2.466	0	0.000
61590.037	0.000	2.479	0	0.000
61650.031	0.000	2.476	0	0.000
61710.021	0.000	2.469	0	0.000
61770.010	0.000	2.478	0	0.000
61830.015	0.000	2.497	0	0.000
61890.044	0.000	2.469	0	0.000
61950.053	0.000	2.480	0	0.000
62010.053	0.000	2.476	0	0.000
62070.037	0.000	2.483	0	0.000
62130.007	0.000	2.488	0	0.000
62190.041	0.000	2.463	0	0.000
62250.041	0.000	2.469	0	0.000
62310.020	0.000	2.476	0	0.000
62370.035	0.000	2.479	0	0.000
62430.049	0.000	2.475	0	0.000
62490.064	0.000	2.479	0	0.000
62550.048	0.000	2.469	0	0.000
62610.033	0.000	2.469	0	0.000
62670.047	0.000	2.464	0	0.000
62730.052	0.000	2.469	0	0.000
62790.056	0.000	2.483	0	0.000
62850.056	0.000	2.486	0	0.000
62910.030	0.000	2.458	0	0.000
62970.015	0.000	2.467	0	0.000
63030.009	0.000	2.482	0	0.000
63090.014	0.000	2.482	0	0.000
63150.018	0.000	2.474	0	0.000
63210.022	0.000	2.473	0	0.000
63270.042	0.000	2.487	0	0.000
63330.031	0.000	2.479	0	0.000
63390.006	0.000	2.475	0	0.000
63450.020	0.000	2.477	0	0.000
63510.035	0.000	2.469	0	0.000
63570.029	0.000	2.479	0	0.000
63630.019	0.000	2.460	0	0.000
63690.023	0.000	2.470	0	0.000
63750.018	0.000	2.481	0	0.000
63810.017	0.000	2.476	0	0.000
63870.047	0.000	2.473	0	0.000
63930.046	0.000	2.479	0	0.000
63990.046	0.000	2.482	0	0.000
64050.050	0.000	2.475	0	0.000
64110.050	0.000	2.465	0	0.000
64170.064	0.000	2.477	0	0.000
64230.054	0.000	2.481	0	0.000
64290.028	0.000	2.487	0	0.000
64350.013	0.000	2.462	0	0.000
64410.022	0.000	2.461	0	0.000
64470.021	0.000	2.476	0	0.000
64530.006	0.000	2.465	0	0.000
64590.035	0.000	2.460	0	0.000
64650.050	0.000	2.474	0	0.000
64710.039	0.000	2.477	0	0.000
64770.044	0.000	2.475	0	0.000
64830.043	0.000	2.468	0	0.000
64890.063	0.000	2.478	0	0.000
64950.047	0.000	2.479	0	0.000
65010.037	0.000	2.489	0	0.000
65070.051	0.000	2.462	0	0.000
65130.041	0.000	2.470	0	0.000
65190.025	0.000	2.480	0	0.000
65250.025	0.000	2.469	0	0.000
65310.054	0.000	2.462	0	0.000
65370.064	0.000	2.480	0	0.000
65430.048	0.000	2.485	0	0.000
65490.033	0.000	2.475	0	0.000
65550.032	0.000	2.457	0	0.000
65610.037	0.000	2.481	0	0.000
65670.026	0.000	2.476	0	0.000
65730.016	0.000	2.472	0	0.000
65790.035	0.000	2.460	0	0.000
65850.039	0.000	2.475	0	0.000
65910.039	0.000	2.483	0	0.000
65970.048	0.000	2.478	0	0.000
66030.038	0.000	2.469	0	0.000
66090.037	0.000	2.482	0	0.000
66150.027	0.000	2.481	0	0.000
66210.011	0.000	2.492	0	0.000
66270.026	0.000	2.473	0	0.000
66330.050	0.000	2.480	0	0.000
66390.035	0.000	2.485	0	0.000
66450.014	0.000	2.480	0	0.000
66510.029	0.000	2.468	0	0.000
66570.028	0.000	2.466	0	0.000
66630.043	0.000	2.472	0	0.000
66690.042	0.000	2.483	0	0.000
66750.017	0.000	2.460	0	0.000
66810.036	0.000	2.459	0	0.000
66870.031	0.000	2.479	0	0.000
66930.020	0.000	2.466	0	0.000
66990.045	0.000	2.456	0	0.000
67050.044	0.000	2.460	0	0.000
67110.033	0.000	2.471	0	0.000
67170.058	0.000	2.462	0	0.000
67230.072	0.000	2.434	0	0.000
67290.047	0.000	2.445	0	0.000
67350.021	0.000	2.458	0	0.000
67410.041	0.000	2.451	0	0.000
67470.070	0.000	2.447	0	0.000
67530.055	0.000	2.454	0	0.000
67590.049	0.000	2.453	0	0.000
67650.034	0.000	2.463	0	0.000
67710.038	0.000	2.438	0	0.000
67770.038	0.000	2.445	0	0.000
67830.037	0.000	2.449	0	0.000
67890.052	0.000	2.441	0	0.000
67950.026	0.000	2.420	0	0.000
68010.016	0.000	2.434	0	0.000
68070.040	0.000	2.446	0	0.000
68130.070	0.000	2.450	0	0.000
68190.069	0.000	2.436	0	0.000
68250.069	0.000	2.445	0	0.000
68310.043	0.000	2.448	0	0.000
68370.042	0.000	2.438	0	0.000
68430.057	0.000	2.418	0	0.000
68490.051	0.000	2.428	0	0.000
68550.041	0.000	2.436	0	0.000
68610.030	0.000	2.443	0	0.000
68670.040	0.000	2.432	0	0.000
68730.054	0.000	2.431	0	0.000
68790.059	0.000	2.419	0	0.000
68850.033	0.000	2.406	0	0.000
68910.038	0.000	2.393	0	0.000
68970.062	0.000	2.419	0	0.000
69030.057	0.000	2.415	0	0.000
69090.046	0.000	2.416	0	0.000
69150.041	0.000	2.402	0	0.000
69210.040	0.000	2.403	0	0.000
69270.055	0.000	2.409	0	0.000
69330.049	0.000	2.405	0	0.000
69390.049	0.000	2.383	0	0.000
69450.038	0.000	2.393	0	0.000
69510.018	0.000	2.398	0	0.000
69570.032	0.000	2.405	0	0.000
69630.041	0.000	2.388	0	0.000
69690.041	0.000	2.391	0	0.000
69750.040	0.000	2.398	0	0.000
69810.045	0.000	2.393	0	0.000
69870.064	0.000	2.387	0	0.000
69930.074	0.000	2.388	0	0.000
69990.043	0.000	2.398	0	0.000
70050.028	0.000	2.389	0	0.000
70110.052	0.000	2.374	0	0.000
70170.057	0.000	2.380	0	0.000
70230.031	0.000	2.376	0	0.000
70290.026	0.000	2.372	0	0.000
70350.040	0.000	2.356	0	0.000
70410.055	0.000	2.366	0	0.000
70470.064	0.000	2.376	0	0.000
70530.054	0.000	2.377	0	0.000
70590.028	0.000	2.364	0	0.000
70650.028	0.000	2.372	0	0.000
70710.042	0.000	2.369	0	0.000
70770.042	0.000	2.354	0	0.000
70830.041	0.000	2.348	0	0.000
70890.050	0.000	2.365	0	0.000
70950.050	0.000	2.369	0	0.000
71010.054	0.000	2.352	0	0.000
71070.044	0.000	2.330	0	0.000
71130.028	0.000	2.342	0	0.000
71190.048	0.000	2.357	0	0.000
71250.067	0.000	2.348	0	0.000
71310.062	0.000	2.340	0	0.000
71370.046	0.000	2.343	0	0.000
71430.046	0.000	2.346	0	0.000
71490.045	0.000	2.339	0	0.000
71550.035	0.000	2.343	0	0.000
71610.024	0.000	2.340	0	0.000
71670.029	0.000	2.346	0	0.000
71730.053	0.000	2.322	0	0.000
71790.073	0.000	2.328	0	0.000
71850.072	0.000	2.335	0	0.000
71910.062	0.000	2.338	0	0.000
71970.046	0.000	2.329	0	0.000
72030.046	0.000	2.319	0	0.000
72090.045	0.000	2.326	0	0.000
72150.039	0.000	2.314	0	0.000
72210.029	0.000	2.315	0	0.000
72270.043	0.000	2.305	0	0.000
72330.043	0.000	2.314	0	0.000
72390.027	0.000	2.317	0	0.000
72450.042	0.000	2.312	0	0.000
72510.041	0.000	2.307	0	0.000
72570.026	0.000	2.316	0	0.000
72630.015	0.000	2.308	0	0.000
72690.030	0.000	2.285	0	0.000
72750.034	0.000	2.291	0	0.000
72810.049	0.000	2.292	0	0.000
72870.048	0.000	2.305	0	0.000
72930.048	0.000	2.295	0	0.000
72990.072	0.000	2.300	0	0.000
73050.037	0.000	2.310	0	0.000
73110.026	0.000	2.296	0	0.000
73170.036	0.000	2.286	0	0.000
73230.030	0.000	2.285	0	0.000
73290.055	0.000	2.295	0	0.000
73350.054	0.000	2.291	0	0.000
73410.053	0.000	2.281	0	0.000
73470.043	0.000	2.273	0	0.000
73530.047	0.000	2.278	0	0.000
73590.052	0.000	2.285	0	0.000
73650.021	0.000	2.275	0	0.000
73710.031	0.000	2.269	0	0.000
73770.040	0.000	2.277	0	0.000
73830.040	0.000	2.278	0	0.000
73890.044	0.000	2.270	0	0.000
73950.044	0.000	2.271	0	0.000
74010.043	0.000	2.268	0	0.000
74070.028	0.000	2.269	0	0.000
74130.017	0.000	2.251	0	0.000
74190.047	0.000	2.257	0	0.000
74250.056	0.000	2.259	0	0.000
74310.046	0.000	2.265	0	0.000
74370.040	0.000	2.246	0	0.000
74430.025	0.000	2.251	0	0.000
74490.049	0.000	2.243	0	0.000
74550.049	0.000	2.248	0	0.000
74610.018	0.000	2.243	0	0.000
74670.043	0.000	2.250	0	0.000
74730.062	0.000	2.258	0	0.000
74790.067	0.000	2.254	0	0.000
74850.061	0.000	2.246	0	0.000
74910.030	0.000	2.240	0	0.000
74970.030	0.000	2.251	0	0.000
75030.029	0.000	2.239	0	0.000
75090.034	0.000	2.228	0	0.000
75150.048	0.000	2.241	0	0.000
75210.043	0.000	2.242	0	0.000
75270.057	0.000	2.240	0	0.000
75330.072	0.000	2.235	0	0.000
75390.046	0.000	2.237	0	0.000
75450.046	0.000	2.241	0	0.000
75510.045	0.000	2.234	0	0.000
75570.015	0.000	2.217	0	0.000
75630.044	0.000	2.228	0	0.000
75690.054	0.000	2.230	0	0.000
75750.053	0.000	2.227	0	0.000
75810.078	0.000	2.212	0	0.000
75870.072	0.000	2.228	0	0.000
75930.042	0.000	2.220	0	0.000
75990.016	0.000	2.222	0	0.000
76050.045	0.000	2.210	0	0.000
76110.075	0.000	2.210	0	0.000
76170.049	0.000	2.213	0	0.000
76230.024	0.000	2.209	0	0.000
76290.048	0.000	2.202	0	0.000
76350.058	0.000	2.208	0	0.000
76410.057	0.000	2.217	0	0.000
76470.072	0.000	2.210	0	0.000
76530.056	0.000	2.202	0	0.000
76590.031	0.000	2.205	0	0.000
76650.045	0.000	2.199	0	0.000
76710.070	0.000	2.192	0	0.000
76770.059	0.000	2.185	0	0.000
76830.049	0.000	2.195	0	0.000
76890.048	0.000	2.205	0	0.000
76950.063	0.000	2.196	0	0.000
77010.072	0.000	2.183	0	0.000
77070.072	0.000	2.189	0	0.000
77130.071	0.000	2.196	0	0.000
77190.046	0.000	2.181	0	0.000
77250.025	0.000	2.182	0	0.000
77310.024	0.000	2.185	0	0.000
77370.029	0.000	2.185	0	0.000
77430.028	0.000	2.173	0	0.000
77490.048	0.000	2.174	0	0.000
77550.062	0.000	2.182	0	0.000
77610.037	0.000	2.181	0	0.000
77670.021	0.000	2.167	0	0.000
77730.036	0.000	2.167	0	0.000
77790.060	0.000	2.181	0	0.000
77850.070	0.000	2.177	0	0.000
77910.059	0.000	2.161	0	0.000
77970.034	0.000	2.159	0	0.000
78030.048	0.000	2.155	0	0.000
78090.048	0.000	2.164	0	0.000
78150.017	0.000	2.160	0	0.000
78210.017	0.000	2.162	0	0.000
78270.031	0.000	2.169	0	0.000
78330.061	0.000	2.170	0	0.000
78390.050	0.000	2.150	0	0.000
78450.040	0.000	2.154	0	0.000
78510.064	0.000	2.150	0	0.000
78570.058	0.000	2.155	0	0.000
78630.058	0.000	2.140	0	0.000
78690.062	0.000	2.144	0	0.000
78750.062	0.000	2.137	0	0.000
78810.046	0.000	2.142	0	0.000
78870.011	0.000	2.132	0	0.000
78930.010	0.000	2.135	0	0.000
78990.050	0.000	2.135	0	0.000
79050.064	0.000	2.130	0	0.000
79110.064	0.000	2.125	0	0.000
79170.078	0.000	2.131	0	0.000
79230.073	0.000	2.128	0	0.000
79290.062	0.000	2.127	0	0.000
79350.057	0.000	2.117	0	0.000
79410.051	0.000	2.116	0	0.000
79470.046	0.000	2.120	0	0.000
79530.060	0.000	2.119	0	0.000
79590.045	0.000	2.114	0	0.000
79650.044	0.000	2.113	0	0.000
79710.049	0.000	2.110	0	0.000
79770.023	0.000	2.108	0	0.000
79830.048	0.000	2.099	0	0.000
79890.047	0.000	2.100	0	0.000
79950.046	0.000	2.116	0	0.000
80010.051	0.000	2.115	0	0.000
80070.050	0.000	2.112	0	0.000
80130.055	0.000	2.122	0	0.000
80190.044	0.000	2.121	0	0.000
80250.049	0.000	2.115	0	0.000
80310.053	0.000	2.108	0	0.000
80370.043	0.000	2.113	0	0.000
80430.022	0.000	2.115	0	0.000
80490.022	0.000	2.102	0	0.000
80550.026	0.000	2.097	0	0.000
80610.036	0.000	2.092	0	0.000
80670.025	0.000	2.102	0	0.000
80730.015	0.000	2.092	0	0.000
80790.034	0.000	2.085	0	0.000
80850.034	0.000	2.088	0	0.000
80910.048	0.000	2.091	0	0.000
80970.073	0.000	2.079	0	0.000
81030.047	0.000	2.075	0	0.000
81090.022	0.000	2.081	0	0.000
81150.011	0.000	2.082	0	0.000
81210.040	0.000	2.070	0	0.000
81270.065	0.000	2.066	0	0.000
81330.064	0.000	2.073	0	0.000
81390.064	0.000	2.064	0	0.000
81450.048	0.000	2.051	0	0.000
81510.063	0.000	2.054	0	0.000
81570.052	0.000	2.060	0	0.000
81630.037	0.000	2.056	0	0.000
81690.056	0.000	2.037	0	0.000
81750.041	0.000	2.042	0	0.000
81810.045	0.000	2.042	0	0.000
81870.045	0.000	2.045	0	0.000
81930.029	0.000	2.032	0	0.000
81990.059	0.000	2.029	0	0.000
82050.058	0.000	2.041	0	0.000
82110.023	0.000	2.044	0	0.000
82170.017	0.000	2.031	0	0.000
82230.042	0.000	2.026	0	0.000
82290.036	0.000	2.024	0	0.000
82350.036	0.000	2.025	0	0.000
82410.035	0.000	2.007	0	0.000
82470.024	0.000	2.014	0	0.000
82530.054	0.000	2.007	0	0.000
82590.048	0.000	2.005	0	0.000
82650.018	0.000	1.999	0	0.000
82710.022	0.000	2.003	0	0.000
82770.027	0.000	2.006	0	0.000
82830.041	0.000	2.007	0	0.000
82890.051	0.000	1.997	0	0.000
82950.035	0.000	1.991	0	0.000
83010.015	0.000	2.003	0	0.000
83070.029	0.000	1.993	0	0.000
83130.029	0.000	1.989	0	0.000
83190.028	0.000	1.991	0	0.000
83250.058	0.000	1.993	0	0.000
83310.032	0.000	1.985	0	0.000
83370.012	0.000	1.975	0	0.000
83430.036	0.000	1.976	0	0.000
83490.051	0.000	1.982	0	0.000
83550.065	0.000	1.968	0	0.000
83610.065	0.000	1.965	0	0.000
83670.034	0.000	1.963	0	0.000
83730.023	0.000	1.972	0	0.000
83790.043	0.000	1.960	0	0.000
83850.042	0.000	1.951	0	0.000
83910.037	0.000	1.953	0	0.000
83970.036	0.000	1.960	0	0.000
84030.016	0.000	1.966	0	0.000
84090.020	0.000	1.954	0	0.000
84150.020	0.000	1.952	0	0.000
84210.009	0.000	1.950	0	0.000
84270.009	0.000	1.936	0	0.000
84330.013	0.000	1.935	0	0.000
84390.023	0.000	1.933	0	0.000
84450.012	0.000	1.942	0	0.000
84510.027	0.000	1.927	0	0.000
84570.056	0.000	1.926	0	0.000
84630.071	0.000	1.931	0	0.000
84690.065	0.000	1.932	0	0.000
84750.040	0.000	1.924	0	0.000
84810.029	0.000	1.920	0	0.000
84870.029	0.000	1.926	0	0.000
84930.043	0.000	1.920	0	0.000
84990.068	0.000	1.912	0	0.000
85050.067	0.000	1.912	0	0.000
85110.041	0.000	1.910	0	0.000
85170.051	0.000	1.912	0	0.000
85230.065	0.000	1.905	0	0.000
85290.065	0.000	1.906	0	0.000
85350.054	0.000	1.900	0	0.000
85410.019	0.000	1.904	0	0.000
85470.013	0.000	1.892	0	0.000
85530.013	0.000	1.893	0	0.000
85590.002	0.000	1.890	0	0.000
85650.002	0.000	1.890	0	0.000
85710.011	0.000	1.880	0	0.000
85770.036	0.000	1.874	0	0.000
85830.065	0.000	1.883	0	0.000
85890.055	0.000	1.882	0	0.000
85950.024	0.000	1.870	0	0.000
86010.049	0.000	1.871	0	0.000
86070.078	0.000	1.870	0	0.000
86130.053	0.000	1.870	0	0.000
86190.052	0.000	1.861	0	0.000
86250.067	0.000	1.863	0	0.000
86310.056	0.000	1.867	0	0.000
86370.030	0.000	1.868	0	0.000
86430.015	0.000	1.850	0	0.000
86490.024	0.000	1.850	0	0.000
86550.024	0.000	1.855	0	0.000
86610.013	0.000	1.849	0	0.000
86670.013	0.000	1.840	0	0.000
86730.027	0.000	1.843	0	0.000
86790.017	0.000	1.850	0	0.000
86850.016	0.000	1.845	0	0.000
86910.026	0.000	1.830	0	0.000
86970.030	0.000	1.837	0	0.000
87030.035	0.000	1.833	0	0.000
87090.024	0.000	1.831	0	0.000
87150.039	0.000	1.820	0	0.000
87210.033	0.000	1.824	0	0.000
87270.043	0.000	1.820	0	0.000
87330.067	0.000	1.817	0	0.000
87390.067	0.000	1.810	0	0.000
87450.066	0.000	1.814	0	0.000
87510.041	0.000	1.820	0	0.000
87570.015	0.000	1.808	0	0.000
87630.004	0.000	1.800	0	0.000
87690.014	0.000	1.800	0	0.000
87750.028	0.000	1.809	0	0.000
87810.018	0.000	1.801	0	0.000
87870.022	0.000	1.790	0	0.000
87930.037	0.000	1.791	0	0.000
87990.031	0.000	1.800	0	0.000
88050.041	0.000	1.792	0	0.000
88110.065	0.000	1.790	0	0.000
88170.070	0.000	1.790	0	0.000
88230.059	0.000	1.790	0	0.000
88290.044	0.000	1.781	0	0.000
88350.053	0.000	1.780	0	0.000
88410.053	0.000	1.780	0	0.000
88470.042	0.000	1.780	0	0.000
88530.032	0.000	1.771	0	0.000
88590.016	0.000	1.764	0	0.000
88650.026	0.000	1.770	0	0.000
88710.015	0.000	1.770	0	0.000
88770.020	0.000	1.762	0	0.000
88830.019	0.000	1.760	0	0.000
88890.028	0.000	1.760	0	0.000
88950.053	0.000	1.760	0	0.000
89010.052	0.000	1.751	0	0.000
89070.027	0.000	1.750	0	0.000
89130.016	0.000	1.756	0	0.000
89190.031	0.000	1.755	0	0.000
89250.030	0.000	1.742	0	0.000
89310.030	0.000	1.740	0	0.000
89370.049	0.000	1.742	0	0.000
89430.039	0.000	1.748	0	0.000
89490.018	0.000	1.740	0	0.000
89550.048	0.000	1.740	0	0.000
89610.037	0.000	1.740	0	0.000
89670.032	0.000	1.739	0	0.000
89730.056	0.000	1.730	0	0.000
89790.046	0.000	1.730	0	0.000
89850.045	0.000	1.731	0	0.000
89910.035	0.000	1.734	0	0.000
89970.034	0.000	1.724	0	0.000
90030.029	0.000	1.720	0	0.000
90090.003	0.000	1.726	0	0.000
90150.002	0.000	1.728	0	0.000
90210.007	0.000	1.720	0	0.000
90270.006	0.000	1.720	0	0.000
90330.016	0.000	1.720	0	0.000
90390.030	0.000	1.717	0	0.000
90450.030	0.000	1.710	0	0.000
90510.039	0.000	1.710	0	0.000
90570.054	0.000	1.716	0	0.000
90630.033	0.000	1.711	0	0.000
90690.008	0.000	1.700	0	0.000
90750.032	0.000	1.707	0	0.000
90810.057	0.000	1.710	0	0.000
90870.031	0.000	1.705	0	0.000
90930.016	0.000	1.700	0	0.000
90990.025	0.000	1.700	0	0.000
91050.015	0.000	1.701	0	0.000
91110.004	0.000	1.703	0	0.000
91170.019	0.000	1.690	0	0.000
91230.018	0.000	1.694	0	0.000
91290.003	0.000	1.700	0	0.000
91350.002	0.000	1.699	0	0.000
91410.026	0.000	1.690	0	0.000
91470.051	0.000	1.690	0	0.000
91530.040	0.000	1.699	0	0.000
91590.035	0.000	1.688	0	0.000
91650.039	0.000	1.686	0	0.000
91710.024	0.000	1.690	0	0.000
91770.008	0.000	1.690	0	0.000
91830.038	0.000	1.683	0	0.000
91890.037	0.000	1.680	0	0.000
91950.037	0.000	1.686	0	0.000
92010.051	0.000	1.690	0	0.000
92070.021	0.000	1.683	0	0.000
92130.020	0.000	1.680	0	0.000
92190.020	0.000	1.680	0	0.000
92250.029	0.000	1.689	0	0.000
92310.059	0.000	1.679	0	0.000
92370.058	0.000	1.672	0	0.000
92430.058	0.000	1.680	0	0.000
92490.062	0.000	1.680	0	0.000
92550.032	0.000	1.676	0	0.000
92610.006	0.000	1.670	0	0.000
92670.010	0.000	1.678	0	0.000
92730.035	0.000	1.680	0	0.000
92790.044	0.000	1.670	0	0.000
92850.029	0.000	1.670	0	0.000
92910.023	0.000	1.670	0	0.000
92970.013	0.000	1.679	0	0.000
93030.007	0.000	1.670	0	0.000
93090.027	0.000	1.670	0	0.000
93150.051	0.000	1.670	0	0.000
93210.046	0.000	1.670	0	0.000
93270.050	0.000	1.670	0	0.000
93330.050	0.000	1.670	0	0.000
93390.049	0.000	1.670	0	0.000
93450.069	0.000	1.670	0	0.000
93510.073	0.000	1.664	0	0.000
93570.053	0.000	1.660	0	0.000
93630.042	0.000	1.669	0	0.000
93690.057	0.000	1.669	0	0.000
93750.036	0.000	1.660	0	0.000
93810.036	0.000	1.660	0	0.000
93870.060	0.000	1.669	0	0.000
93930.045	0.000	1.666	0	0.000
93990.034	0.000	1.660	0	0.000
94050.023	0.000	1.660	0	0.000
94110.008	0.000	1.668	0	0.000
94170.022	0.000	1.666	0	0.000
94230.022	0.000	1.660	0	0.000
94290.006	0.000	1.660	0	0.000
94350.031	0.000	1.660	0	0.000
94410.055	0.000	1.660	0	0.000
94470.055	0.000	1.655	0	0.000
94530.054	0.000	1.658	0	0.000
94590.029	0.000	1.660	0	0.000
94650.008	0.000	1.660	0	0.000
94710.023	0.000	1.650	0	0.000
94770.032	0.000	1.658	0	0.000
94830.052	0.000	1.660	0	0.000
94890.056	0.000	1.660	0	0.000
94950.056	0.000	1.650	0	0.000
95010.070	0.000	1.655	0	0.000
95070.065	0.000	1.652	0	0.000
95130.044	0.000	1.652	0	0.000
95190.029	0.000	1.650	0	0.000
95250.033	0.000	1.657	0	0.000
95310.022	0.000	1.660	0	0.000
95370.032	0.000	1.656	0	0.000
95430.031	0.000	1.650	0	0.000
95490.006	0.000	1.651	0	0.000
95550.010	0.000	1.660	0	0.000
95610.025	0.000	1.652	0	0.000
95670.019	0.000	1.650	0	0.000
95730.024	0.000	1.658	0	0.000
95790.023	0.000	1.660	0	0.000
95850.008	0.000	1.654	0	0.000
95910.027	0.000	1.653	0	0.000
95970.037	0.000	1.660	0	0.000
96030.021	0.000	1.660	0	0.000
96090.011	0.000	1.651	0	0.000
96150.010	0.000	1.654	0	0.000
96210.025	0.000	1.660	0	0.000
96270.024	0.000	1.660	0	0.000
96330.034	0.000	1.653	0	0.000
96390.033	0.000	1.655	0	0.000
96450.023	0.000	1.660	0	0.000
96510.052	0.000	1.659	0	0.000
96570.052	0.000	1.650	0	0.000
96630.021	0.000	1.653	0	0.000
96690.035	0.000	1.660	0	0.000
96750.050	0.000	1.660	0	0.000
96810.049	0.000	1.657	0	0.000
96870.039	0.000	1.653	0	0.000
96930.008	0.000	1.660	0	0.000
96990.008	0.000	1.660	0	0.000
97050.037	0.000	1.650	0	0.000
97110.067	0.000	1.657	0	0.000
97170.066	0.000	1.660	0	0.000
97230.061	0.000	1.660	0	0.000
97290.070	0.000	1.660	0	0.000
97350.065	0.000	1.660	0	0.000
97410.059	0.000	1.660	0	0.000
97470.039	0.000	1.660	0	0.000
97530.008	0.000	1.653	0	0.000
97590.023	0.000	1.656	0	0.000
97650.052	0.000	1.660	0	0.000
97710.062	0.000	1.666	0	0.000
97770.036	0.000	1.660	0	0.000
97830.025	0.000	1.660	0	0.000
97890.035	0.000	1.660	0	0.000
97950.049	0.000	1.660	0	0.000
98010.064	0.000	1.660	0	0.000
98070.063	0.000	1.661	0	0.000
98130.063	0.000	1.670	0	0.000
98190.037	0.000	1.670	0	0.000
98250.042	0.000	1.660	0	0.000
98310.051	0.000	1.660	0	0.000
98370.031	0.000	1.660	0	0.000
98430.030	0.000	1.665	0	0.000
98490.045	0.000	1.660	0	0.000
98550.049	0.000	1.666	0	0.000
98610.049	0.000	1.670	0	0.000
98670.033	0.000	1.669	0	0.000
98730.033	0.000	1.660	0	0.000
98790.057	0.000	1.669	0	0.000
98850.062	0.000	1.670	0	0.000
98910.066	0.000	1.663	0	0.000
98970.066	0.000	1.660	0	0.000
99030.070	0.000	1.669	0	0.000
99090.070	0.000	1.670	0	0.000
99150.034	0.000	1.670	0	0.000
99210.008	0.000	1.670	0	0.000
99270.013	0.000	1.670	0	0.000
99330.042	0.000	1.670	0	0.000
99390.037	0.000	1.669	0	0.000
99450.031	0.000	1.666	0	0.000
99510.036	0.000	1.675	0	0.000
99570.025	0.000	1.680	0	0.000
99630.040	0.000	1.672	0	0.000
99690.054	0.000	1.670	0	0.000
99750.069	0.000	1.676	0	0.000
99810.038	0.000	1.680	0	0.000
99870.023	0.000	1.670	0	0.000
99930.052	0.000	1.670	0	0.000
99990.052	0.000	1.677	0	0.000
100050.036	0.000	1.680	0	0.000
100110.051	0.000	1.680	0	0.000
100170.065	0.000	1.680	0	0.000
100230.050	0.000	1.680	0	0.000
100290.039	0.000	1.680	0	0.000
100350.054	0.000	1.680	0	0.000
100410.063	0.000	1.680	0	0.000
100470.037	0.000	1.684	0	0.000
100530.037	0.000	1.690	0	0.000
100590.056	0.000	1.683	0	0.000
100650.056	0.000	1.681	0	0.000
100710.050	0.000	1.690	0	0.000
100770.025	0.000	1.690	0	0.000
100830.024	0.000	1.681	0	0.000
100890.054	0.000	1.683	0	0.000
100950.068	0.000	1.690	0	0.000
101010.063	0.000	1.690	0	0.000
101070.047	0.000	1.690	0	0.000
101130.052	0.000	1.690	0	0.000
101190.056	0.000	1.692	0	0.000
101250.056	0.000	1.699	0	0.000
101310.055	0.000	1.690	0	0.000
101370.025	0.000	1.690	0	0.000
101430.034	0.000	1.699	0	0.000
101490.034	0.000	1.700	0	0.000
101550.023	0.000	1.700	0	0.000
101610.038	0.000	1.700	0	0.000
101670.047	0.000	1.700	0	0.000
101730.036	0.000	1.700	0	0.000
101790.011	0.000	1.700	0	0.000
101850.025	0.000	1.700	0	0.000
101910.025	0.000	1.701	0	0.000
101970.009	0.000	1.707	0	0.000
102030.029	0.000	1.700	0	0.000
102090.033	0.000	1.706	0	0.000
102150.048	0.000	1.710	0	0.000
102210.057	0.000	1.709	0	0.000
102270.037	0.000	1.700	0	0.000
102330.051	0.000	1.705	0	0.000
102390.041	0.000	1.710	0	0.000
102450.010	0.000	1.710	0	0.000
102510.035	0.000	1.710	0	0.000
102570.059	0.000	1.714	0	0.000
102630.064	0.000	1.720	0	0.000
102690.053	0.000	1.719	0	0.000
102750.048	0.000	1.710	0	0.000
102810.062	0.000	1.711	0	0.000
102870.042	0.000	1.720	0	0.000
102930.021	0.000	1.720	0	0.000
102990.030	0.000	1.720	0	0.000
103050.050	0.000	1.722	0	0.000
103110.064	0.000	1.730	0	0.000
103170.039	0.000	1.726	0	0.000
103230.018	0.000	1.720	0	0.000
103290.038	0.000	1.724	0	0.000
103350.042	0.000	1.730	0	0.000
103410.027	0.000	1.730	0	0.000
103470.046	0.000	1.730	0	0.000
103530.046	0.000	1.732	0	0.000
103590.030	0.000	1.740	0	0.000
103650.045	0.000	1.733	0	0.000
103710.044	0.000	1.730	0	0.000
103770.044	0.000	1.737	0	0.000
103830.058	0.000	1.740	0	0.000
103890.073	0.000	1.730	0	0.000
103950.067	0.000	1.735	0	0.000
104010.067	0.000	1.743	0	0.000
104070.041	0.000	1.750	0	0.000
104130.026	0.000	1.741	0	0.000
104190.055	0.000	1.740	0	0.000
104250.040	0.000	1.740	0	0.000
104310.009	0.000	1.748	0	0.000
104370.013	0.000	1.740	0	0.000
104430.018	0.000	1.747	0	0.000
104490.027	0.000	1.750	0	0.000
104550.042	0.000	1.755	0	0.000
104610.056	0.000	1.750	0	0.000
104670.066	0.000	1.750	0	0.000
104730.040	0.000	1.750	0	0.000
104790.015	0.000	1.750	0	0.000
104850.019	0.000	1.750	0	0.000
104910.034	0.000	1.756	0	0.000
104970.048	0.000	1.760	0	0.000
105030.063	0.000	1.760	0	0.000
105090.067	0.000	1.760	0	0.000
105150.037	0.000	1.760	0	0.000
105210.026	0.000	1.760	0	0.000
105270.056	0.000	1.766	0	0.000
105330.045	0.000	1.760	0	0.000
105390.040	0.000	1.766	0	0.000
105450.039	0.000	1.770	0	0.000
105510.044	0.000	1.774	0	0.000
105570.053	0.000	1.770	0	0.000
105630.027	0.000	1.770	0	0.000
105690.042	0.000	1.779	0	0.000
105750.041	0.000	1.780	0	0.000
105810.021	0.000	1.770	0	0.000
105870.035	0.000	1.776	0	0.000
105930.045	0.000	1.780	0	0.000
105990.049	0.000	1.788	0	0.000
106050.049	0.000	1.780	0	0.000
106110.058	0.000	1.780	0	0.000
106170.068	0.000	1.789	0	0.000
106230.052	0.000	1.790	0	0.000
106290.057	0.000	1.781	0	0.000
106350.071	0.000	1.787	0	0.000
106410.046	0.000	1.795	0	0.000
106470.045	0.000	1.797	0	0.000
106530.055	0.000	1.790	0	0.000
106590.039	0.000	1.794	0	0.000
106650.024	0.000	1.800	0	0.000
106710.043	0.000	1.800	0	0.000
106770.078	0.000	1.794	0	0.000
106830.072	0.000	1.800	0	0.000
106890.046	0.000	1.810	0	0.000
106950.046	0.000	1.810	0	0.000
107010.040	0.000	1.810	0	0.000
107070.045	0.000	1.811	0	0.000
107130.059	0.000	1.820	0	0.000
107190.059	0.000	1.818	0	0.000
107250.073	0.000	1.810	0	0.000
107310.073	0.000	1.818	0	0.000
107370.072	0.000	1.824	0	0.000
107430.072	0.000	1.828	0	0.000
107490.056	0.000	1.820	0	0.000
107550.031	0.000	1.830	0	0.000
107610.030	0.000	1.835	0	0.000
107670.060	0.000	1.832	0	0.000
107730.079	0.000	1.830	0	0.000
107790.059	0.000	1.837	0	0.000
107850.053	0.000	1.847	0	0.000
107910.043	0.000	1.846	0	0.000
107970.042	0.000	1.841	0	0.000
108030.057	0.000	1.850	0	0.000
108090.046	0.000	1.850	0	0.000
108150.060	0.000	1.850	0	0.000
108210.060	0.000	1.850	0	0.000
108270.059	0.000	1.858	0	0.000
108330.049	0.000	1.864	0	0.000
108390.048	0.000	1.864	0	0.000
108450.058	0.000	1.860	0	0.000
108510.032	0.000	1.865	0	0.000
108570.047	0.000	1.874	0	0.000
108630.071	0.000	1.872	0	0.000
108690.071	0.000	1.870	0	0.000
108750.070	0.000	1.879	0	0.000
108810.045	0.000	1.885	0	0.000
108870.029	0.000	1.883	0	0.000
108930.044	0.000	1.881	0	0.000
108990.048	0.000	1.890	0	0.000
109050.058	0.000	1.890	0	0.000
109110.057	0.000	1.890	0	0.000
109170.032	0.000	1.890	0	0.000
109230.036	0.000	1.897	0	0.000
109290.051	0.000	1.900	0	0.000
109350.060	0.000	1.900	0	0.000
109410.044	0.000	1.900	0	0.000
109470.039	0.000	1.907	0	0.000
109530.063	0.000	1.910	0	0.000
109590.068	0.000	1.902	0	0.000
109650.072	0.000	1.908	0	0.000
109710.057	0.000	1.915	0	0.000
109770.041	0.000	1.920	0	0.000
109830.056	0.000	1.917	0	0.000
109890.045	0.000	1.915	0	0.000
109950.020	0.000	1.923	0	0.000
110010.034	0.000	1.930	0	0.000
110070.034	0.000	1.922	0	0.000
110130.018	0.000	1.926	0	0.000
110190.033	0.000	1.930	0	0.000
110250.047	0.000	1.930	0	0.000
110310.032	0.000	1.930	0	0.000
110370.036	0.000	1.934	0	0.000
110430.051	0.000	1.940	0	0.000
110490.030	0.000	1.940	0	0.000
110550.045	0.000	1.940	0	0.000
110610.074	0.000	1.940	0	0.000
110670.073	0.000	1.946	0	0.000
110730.038	0.000	1.950	0	0.000
110790.007	0.000	1.950	0	0.000
110850.032	0.000	1.950	0	0.000
110910.046	0.000	1.960	0	0.000
110970.046	0.000	1.960	0	0.000
111030.035	0.000	1.952	0	0.000
111090.045	0.000	1.958	0	0.000
111150.044	0.000	1.967	0	0.000
111210.034	0.000	1.970	0	0.000
111270.063	0.000	1.962	0	0.000
111330.063	0.000	1.967	0	0.000
111390.047	0.000	1.970	0	0.000
111450.037	0.000	1.970	0	0.000
111510.021	0.000	1.970	0	0.000
111570.036	0.000	1.971	0	0.000
111630.040	0.000	1.985	0	0.000
111690.020	0.000	1.983	0	0.000
111750.019	0.000	1.980	0	0.000
111810.039	0.000	1.981	0	0.000
111870.038	0.000	1.990	0	0.000
111930.012	0.000	1.988	0	0.000
111990.022	0.000	1.980	0	0.000
112050.051	0.000	1.991	0	0.000
112110.046	0.000	2.000	0	0.000
112170.040	0.000	2.000	0	0.000
112230.035	0.000	2.000	0	0.000
112290.044	0.000	2.000	0	0.000
112350.049	0.000	2.010	0	0.000
112410.053	0.000	2.006	0	0.000
112470.073	0.000	2.001	0	0.000
112530.057	0.000	2.010	0	0.000
112590.032	0.000	2.018	0	0.000
112650.016	0.000	2.018	0	0.000
112710.046	0.000	2.010	0	0.000
112770.060	0.000	2.019	0	0.000
112830.035	0.000	2.020	0	0.000
112890.034	0.000	2.020	0	0.000
112950.044	0.000	2.020	0	0.000
113010.033	0.000	2.026	0	0.000
113070.013	0.000	2.030	0	0.000
113130.017	0.000	2.030	0	0.000
113190.042	0.000	2.030	0	0.000
113250.046	0.000	2.036	0	0.000
113310.045	0.000	2.040	0	0.000
113370.050	0.000	2.038	0	0.000
113430.034	0.000	2.033	0	0.000
113490.019	0.000	2.032	0	0.000
113550.033	0.000	2.039	0	0.000
113610.063	0.000	2.037	0	0.000
113670.067	0.000	2.038	0	0.000
113730.067	0.000	2.040	0	0.000
113790.051	0.000	2.050	0	0.000
113850.051	0.000	2.046	0	0.000
113910.060	0.000	2.040	0	0.000
113970.025	0.000	2.050	0	0.000
114030.039	0.000	2.059	0	0.000
114090.079	0.000	2.060	0	0.000
114150.063	0.000	2.051	0	0.000
114210.033	0.000	2.060	0	0.000
114270.032	0.000	2.064	0	0.000
114330.057	0.000	2.063	0	0.000
114390.061	0.000	2.060	0	0.000
114450.036	0.000	2.069	0	0.000
114510.025	0.000	2.080	0	0.000
114570.029	0.000	2.072	0	0.000
114630.044	0.000	2.070	0	0.000
114690.053	0.000	2.080	0	0.000
114750.063	0.000	2.080	0	0.000
114810.062	0.000	2.080	0	0.000
114870.047	0.000	2.080	0	0.000
114930.036	0.000	2.086	0	0.000
114990.036	0.000	2.090	0	0.000
115050.025	0.000	2.087	0	0.000
115110.015	0.000	2.089	0	0.000
115170.039	0.000	2.099	0	0.000
115230.039	0.000	2.100	0	0.000
115290.048	0.000	2.097	0	0.000
115350.038	0.000	2.096	0	0.000
115410.012	0.000	2.106	0	0.000
115470.022	0.000	2.110	0	0.000
115530.011	0.000	2.110	0	0.000
115590.026	0.000	2.110	0	0.000
115650.065	0.000	2.117	0	0.000
115710.050	0.000	2.120	0	0.000
115770.049	0.000	2.112	0	0.000
115830.068	0.000	2.116	0	0.000
115890.053	0.000	2.123	0	0.000
115950.062	0.000	2.130	0	0.000
116010.067	0.000	2.130	0	0.000
116070.066	0.000	2.130	0	0.000
116130.076	0.000	2.130	0	0.000
116190.065	0.000	2.135	0	0.000
116250.040	0.000	2.136	0	0.000
116310.029	0.000	2.134	0	0.000
116370.044	0.000	2.143	0	0.000
116430.053	0.000	2.150	0	0.000
116490.038	0.000	2.149	0	0.000
116550.047	0.000	2.147	0	0.000
116610.072	0.000	2.152	0	0.000
116670.071	0.000	2.160	0	0.000
116730.076	0.000	2.153	0	0.000
116790.055	0.000	2.153	0	0.000
116850.055	0.000	2.163	0	0.000
116910.054	0.000	2.170	0	0.000
116970.029	0.000	2.165	0	0.000
117030.043	0.000	2.165	0	0.000
117090.068	0.000	2.170	0	0.000
117150.052	0.000	2.170	0	0.000
117210.051	0.000	2.170	0	0.000
117270.051	0.000	2.172	0	0.000
117330.020	0.000	2.180	0	0.000
117390.035	0.000	2.187	0	0.000
117450.064	0.000	2.180	0	0.000
117510.074	0.000	2.182	0	0.000
117570.063	0.000	2.190	0	0.000
117630.053	0.000	2.190	0	0.000
117690.052	0.000	2.187	0	0.000
117750.037	0.000	2.190	0	0.000
117810.046	0.000	2.200	0	0.000
117870.056	0.000	2.200	0	0.000
117930.060	0.000	2.200	0	0.000
117990.075	0.000	2.200	0	0.000
118050.044	0.000	2.200	0	0.000
118110.044	0.000	2.209	0	0.000
118170.043	0.000	2.201	0	0.000
118230.023	0.000	2.205	0	0.000
118290.042	0.000	2.213	0	0.000
118350.032	0.000	2.220	0	0.000
118410.006	0.000	2.214	0	0.000
118470.015	0.000	2.215	0	0.000
118530.025	0.000	2.220	0	0.000
118590.039	0.000	2.220	0	0.000
118650.039	0.000	2.220	0	0.000
118710.013	0.000	2.224	0	0.000
118770.038	0.000	2.230	0	0.000
118830.062	0.000	2.230	0	0.000
118890.052	0.000	2.230	0	0.000
118950.041	0.000	2.230	0	0.000
119010.046	0.000	2.240	0	0.000
119070.055	0.000	2.240	0	0.000
119130.065	0.000	2.240	0	0.000
119190.079	0.000	2.240	0	0.000
119250.079	0.000	2.249	0	0.000
119310.068	0.000	2.250	0	0.000
119370.053	0.000	2.250	0	0.000
119430.057	0.000	2.250	0	0.000
119490.052	0.000	2.254	0	0.000
119550.021	0.000	2.260	0	0.000
119610.016	0.000	2.252	0	0.000
119670.050	0.000	2.256	0	0.000
119730.039	0.000	2.264	0	0.000
119790.039	0.000	2.270	0	0.000
119850.073	0.000	2.261	0	0.000
119910.063	0.000	2.267	0	0.000
119970.052	0.000	2.271	0	0.000
120030.027	0.000	2.279	0	0.000
120090.016	0.000	2.270	0	0.000
120150.016	0.000	2.283	0	0.000
120210.010	0.000	2.290	0	0.000
120270.050	0.000	2.290	0	0.000
120330.064	0.000	2.290	0	0.000
120390.044	0.000	2.290	0	0.000
120450.058	0.000	2.299	0	0.000
120510.053	0.000	2.300	0	0.000
120570.017	0.000	2.294	0	0.000
120630.017	0.000	2.300	0	0.000
120690.041	0.000	2.305	0	0.000
120750.041	0.000	2.310	0	0.000
120810.040	0.000	2.302	0	0.000
120870.055	0.000	2.305	0	0.000
120930.044	0.000	2.310	0	0.000
120990.023	0.000	2.310	0	0.000
121050.018	0.000	2.310	0	0.000
121110.037	0.000	2.316	0	0.000
121170.027	0.000	2.320	0	0.000
121230.011	0.000	2.320	0	0.000
121290.021	0.000	2.320	0	0.000
121350.050	0.000	2.324	0	0.000
121410.070	0.000	2.330	0	0.000
121470.044	0.000	2.330	0	0.000
121530.044	0.000	2.330	0	0.000
121590.048	0.000	2.330	0	0.000
121650.038	0.000	2.339	0	0.000
121710.032	0.000	2.340	0	0.000
121770.042	0.000	2.340	0	0.000
121830.041	0.000	2.340	0	0.000
121890.016	0.000	2.348	0	0.000
121950.005	0.000	2.350	0	0.000
122010.030	0.000	2.342	0	0.000
122070.054	0.000	2.351	0	0.000
122130.054	0.000	2.360	0	0.000
122190.043	0.000	2.359	0	0.000
122250.047	0.000	2.350	0	0.000
122310.032	0.000	2.353	0	0.000
122370.026	0.000	2.362	0	0.000
122430.026	0.000	2.370	0	0.000
122490.025	0.000	2.360	0	0.000
122550.050	0.000	2.361	0	0.000
122610.054	0.000	2.370	0	0.000
122670.044	0.000	2.370	0	0.000
122730.018	0.000	2.370	0	0.000
122790.008	0.000	2.371	0	0.000
122850.047	0.000	2.380	0	0.000
122910.072	0.000	2.380	0	0.000
122970.056	0.000	2.380	0	0.000
123030.066	0.000	2.381	0	0.000
123090.040	0.000	2.390	0	0.000
123150.015	0.000	2.390	0	0.000
123210.029	0.000	2.384	0	0.000
123270.029	0.000	2.387	0	0.000
123330.028	0.000	2.390	0	0.000
123390.033	0.000	2.390	0	0.000
123450.032	0.000	2.390	0	0.000
123510.027	0.000	2.396	0	0.000
123570.026	0.000	2.400	0	0.000
123630.055	0.000	2.400	0	0.000
123690.060	0.000	2.400	0	0.000
123750.044	0.000	2.400	0	0.000
123810.039	0.000	2.405	0	0.000
123870.018	0.000	2.410	0	0.000
123930.018	0.000	2.410	0	0.000
123990.047	0.000	2.410	0	0.000
124050.052	0.000	2.419	0	0.000
124110.046	0.000	2.420	0	0.000
124170.031	0.000	2.417	0	0.000
124230.020	0.000	2.416	0	0.000
124290.020	0.000	2.420	0	0.000
124350.014	0.000	2.420	0	0.000
124410.014	0.000	2.420	0	0.000
124470.003	0.000	2.425	0	0.000
124530.003	0.000	2.430	0	0.000
124590.017	0.000	2.430	0	0.000
124650.022	0.000	2.427	0	0.000
124710.006	0.000	2.428	0	0.000
124770.041	0.000	2.430	0	0.000
124830.055	0.000	2.440	0	0.000
124890.029	0.000	2.440	0	0.000
124950.029	0.000	2.440	0	0.000
125010.033	0.000	2.440	0	0.000
125070.048	0.000	2.446	0	0.000
125130.032	0.000	2.440	0	0.000
125190.017	0.000	2.440	0	0.000
125250.016	0.000	2.442	0	0.000
125310.021	0.000	2.450	0	0.000
125370.045	0.000	2.450	0	0.000
125430.030	0.000	2.450	0	0.000
125490.029	0.000	2.455	0	0.000
125550.069	0.000	2.460	0	0.000
125610.058	0.000	2.451	0	0.000
125670.023	0.000	2.450	0	0.000
125730.042	0.000	2.455	0	0.000
125790.037	0.000	2.463	0	0.000
125850.006	0.000	2.460	0	0.000
125910.036	0.000	2.460	0	0.000
125970.035	0.000	2.466	0	0.000
126030.025	0.000	2.470	0	0.000
126090.059	0.000	2.470	0	0.000
126150.053	0.000	2.470	0	0.000
126210.028	0.000	2.470	0	0.000
126270.042	0.000	2.470	0	0.000
126330.047	0.000	2.478	0	0.000
126390.021	0.000	2.480	0	0.000
126450.031	0.000	2.480	0	0.000
126510.050	0.000	2.480	0	0.000
126570.025	0.000	2.474	0	0.000
126630.034	0.000	2.475	0	0.000
126690.059	0.000	2.480	0	0.000
126750.053	0.000	2.487	0	0.000
126810.043	0.000	2.490	0	0.000
126870.017	0.000	2.490	0	0.000
126930.032	0.000	2.490	0	0.000
126990.036	0.000	2.490	0	0.000
127050.036	0.000	2.490	0	0.000
127110.045	0.000	2.490	0	0.000
127170.035	0.000	2.492	0	0.000
127230.064	0.000	2.500	0	0.000
127290.059	0.000	2.500	0	0.000
127350.043	0.000	2.500	0	0.000
127410.047	0.000	2.501	0	0.000
127470.037	0.000	2.510	0	0.000
127530.046	0.000	2.508	0	0.000
127590.041	0.000	2.500	0	0.000
127650.025	0.000	2.507	0	0.000
127710.040	0.000	2.515	0	0.000
127770.029	0.000	2.512	0	0.000
127830.029	0.000	2.510	0	0.000
127890.058	0.000	2.516	0	0.000
127950.033	0.000	2.520	0	0.000
128010.007	0.000	2.520	0	0.000
128070.027	0.000	2.520	0	0.000
128130.051	0.000	2.520	0	0.000
128190.036	0.000	2.528	0	0.000
128250.010	0.000	2.528	0	0.000
128310.035	0.000	2.522	0	0.000
128370.034	0.000	2.530	0	0.000
128430.009	0.000	2.535	0	0.000
128490.023	0.000	2.535	0	0.000
128550.048	0.000	2.530	0	0.000
128610.037	0.000	2.534	0	0.000
128670.011	0.000	2.540	0	0.000
128730.021	0.000	2.540	0	0.000
128790.035	0.000	2.540	0	0.000
128850.045	0.000	2.546	0	0.000
128910.029	0.000	2.550	0	0.000
128970.004	0.000	2.550	0	0.000
129030.003	0.000	2.550	0	0.000
129090.003	0.000	2.550	0	0.000
129150.022	0.000	2.559	0	0.000
129210.037	0.000	2.560	0	0.000
129270.046	0.000	2.560	0	0.000
129330.046	0.000	2.560	0	0.000
129390.045	0.000	2.569	0	0.000
129450.040	0.000	2.567	0	0.000
129510.014	0.000	2.560	0	0.000
129570.009	0.000	2.567	0	0.000
129630.038	0.000	2.571	0	0.000
129690.068	0.000	2.580	0	0.000
129750.062	0.000	2.570	0	0.000
129810.032	0.000	2.578	0	0.000
129870.031	0.000	2.580	0	0.000
129930.055	0.000	2.580	0	0.000
129990.030	0.000	2.580	0	0.000
130050.029	0.000	2.585	0	0.000
130110.059	0.000	2.590	0	0.000
130170.063	0.000	2.590	0	0.000
130230.038	0.000	2.590	0	0.000
130290.037	0.000	2.590	0	0.000
130350.047	0.000	2.599	0	0.000
130410.036	0.000	2.597	0	0.000
130470.026	0.000	2.590	0	0.000
130530.010	0.000	2.598	0	0.000
130590.025	0.000	2.608	0	0.000
130650.024	0.000	2.608	0	0.000
130710.019	0.000	2.600	0	0.000
130770.043	0.000	2.607	0	0.000
130830.053	0.000	2.610	0	0.000
130890.052	0.000	2.610	0	0.000
130950.047	0.000	2.610	0	0.000
131010.051	0.000	2.613	0	0.000
131070.066	0.000	2.620	0	0.000
131130.065	0.000	2.620	0	0.000
131190.034	0.000	2.620	0	0.000
131250.019	0.000	2.621	0	0.000
131310.033	0.000	2.630	0	0.000
131370.023	0.000	2.628	0	0.000
131430.022	0.000	2.624	0	0.000
131490.032	0.000	2.630	0	0.000
131550.046	0.000	2.640	0	0.000
131610.051	0.000	2.638	0	0.000
131670.025	0.000	2.630	0	0.000
131730.025	0.000	2.636	0	0.000
131790.049	0.000	2.640	0	0.000
131850.059	0.000	2.640	0	0.000
131910.048	0.000	2.640	0	0.000
131970.023	0.000	2.647	0	0.000
132030.037	0.000	2.650	0	0.000
132090.067	0.000	2.650	0	0.000
132150.051	0.000	2.650	0	0.000
132210.036	0.000	2.650	0	0.000
132270.035	0.000	2.659	0	0.000
132330.040	0.000	2.660	0	0.000
132390.029	0.000	2.660	0	0.000
132450.043	0.000	2.663	0	0.000
132510.068	0.000	2.670	0	0.000
132570.047	0.000	2.670	0	0.000
132630.022	0.000	2.670	0	0.000
132690.011	0.000	2.670	0	0.000
132750.021	0.000	2.670	0	0.000
132810.035	0.000	2.678	0	0.000
132870.025	0.000	2.671	0	0.000
132930.014	0.000	2.677	0	0.000
132990.024	0.000	2.680	0	0.000
133050.065	0.000	2.683	0	0.000
133110.054	0.000	2.686	0	0.000
133170.039	0.000	2.680	0	0.000
133230.022	0.000	2.684	0	0.000
133290.026	0.000	2.690	0	0.000
133350.062	0.000	2.690	0	0.000
133410.055	0.000	2.690	0	0.000
133470.040	0.000	2.697	0	0.000
133530.045	0.000	2.700	0	0.000
133590.055	0.000	2.700	0	0.000
133650.048	0.000	2.700	0	0.000
133710.048	0.000	2.704	0	0.000
133770.038	0.000	2.710	0	0.000
133830.038	0.000	2.710	0	0.000
133890.046	0.000	2.710	0	0.000
133950.035	0.000	2.710	0	0.000
134010.010	0.000	2.719	0	0.000
134070.051	0.000	2.711	0	0.000
134130.064	0.000	2.710	0	0.000
134190.068	0.000	2.719	0	0.000
134250.043	0.000	2.726	0	0.000
134310.044	0.000	2.728	0	0.000
134370.053	0.000	2.720	0	0.000
134430.041	0.000	2.730	0	0.000
134490.057	0.000	2.730	0	0.000
134550.035	0.000	2.730	0	0.000
134610.025	0.000	2.730	0	0.000
134670.039	0.000	2.736	0	0.000
134730.065	0.000	2.740	0	0.000
134790.035	0.000	2.740	0	0.000
134850.023	0.000	2.740	0	0.000
134910.037	0.000	2.746	0	0.000
134970.038	0.000	2.750	0	0.000
135030.022	0.000	2.750	0	0.000
135090.030	0.000	2.750	0	0.000
135150.065	0.000	2.751	0	0.000
135210.086	0.000	2.760	0	0.000
135270.055	0.000	2.758	0	0.000
135330.023	0.000	2.756	0	0.000
135390.023	0.000	2.760	0	0.000
135450.054	0.000	2.765	0	0.000
135510.068	0.000	2.766	0	0.000
135570.068	0.000	2.760	0	0.000
135630.041	0.000	2.766	0	0.000
135690.032	0.000	2.775	0	0.000
135750.041	0.000	2.774	0	0.000
135810.054	0.000	2.770	0	0.000
135870.044	0.000	2.776	0	0.000
135930.045	0.000	2.780	0	0.000
135990.059	0.000	2.780	0	0.000
136050.027	0.000	2.780	0	0.000
136110.037	0.000	2.783	0	0.000
136170.053	0.000	2.790	0	0.000
136230.037	0.000	2.790	0	0.000
136290.035	0.000	2.790	0	0.000
136350.024	0.000	2.794	0	0.000
136410.056	0.000	2.800	0	0.000
136470.070	0.000	2.800	0	0.000
136530.038	0.000	2.791	0	0.000
136590.037	0.000	2.800	0	0.000
136650.042	0.000	2.806	0	0.000
136710.043	0.000	2.810	0	0.000
136770.037	0.000	2.810	0	0.000
136830.025	0.000	2.810	0	0.000
136890.025	0.000	2.817	0	0.000
136950.066	0.000	2.816	0	0.000
137010.049	0.000	2.810	0	0.000
137070.053	0.000	2.814	0	0.000
137130.068	0.000	2.824	0	0.000
137190.059	0.000	2.827	0	0.000
137250.063	0.000	2.820	0	0.000
137310.041	0.000	2.828	0	0.000
137370.032	0.000	2.830	0	0.000
137430.032	0.000	2.830	0	0.000
137490.015	0.000	2.830	0	0.000
137550.029	0.000	2.837	0	0.000
137610.070	0.000	2.840	0	0.000
137670.055	0.000	2.840	0	0.000
137730.037	0.000	2.840	0	0.000
137790.084	0.000	2.845	0	0.000
137850.058	0.000	2.850	0	0.000
137910.028	0.000	2.850	0	0.000
137970.020	0.000	2.844	0	0.000
138030.055	0.000	2.852	0	0.000
138090.061	0.000	2.860	0	0.000
138150.055	0.000	2.860	0	0.000
138210.038	0.000	2.860	0	0.000
138270.028	0.000	2.860	0	0.000
138330.057	0.000	2.865	0	0.000
138390.058	0.000	2.868	0	0.000
138450.058	0.000	2.860	0	0.000
138510.071	0.000	2.868	0	0.000
138570.065	0.000	2.870	0	0.000
138630.066	0.000	2.870	0	0.000
138690.029	0.000	2.870	0	0.000
138750.019	0.000	2.875	0	0.000
138810.060	0.000	2.880	0	0.000
138870.059	0.000	2.880	0	0.000
138930.017	0.000	2.875	0	0.000
138990.031	0.000	2.879	0	0.000
139050.046	0.000	2.886	0	0.000
139110.047	0.000	2.890	0	0.000
139170.057	0.000	2.880	0	0.000
139230.049	0.000	2.886	0	0.000
139290.034	0.000	2.890	0	0.000
139350.048	0.000	2.890	0	0.000
139410.043	0.000	2.884	0	0.000
139470.012	0.000	2.891	0	0.000
139530.024	0.000	2.900	0	0.000
139590.033	0.000	2.900	0	0.000
139650.031	0.000	2.900	0	0.000
139710.055	0.000	2.900	0	0.000
139770.075	0.000	2.906	0	0.000
139830.061	0.000	2.910	0	0.000
139890.056	0.000	2.900	0	0.000
139950.073	0.000	2.905	0	0.000
140010.083	0.000	2.912	0	0.000
140070.079	0.000	2.920	0	0.000
140130.043	0.000	2.916	0	0.000
140190.031	0.000	2.910	0	0.000
140250.030	0.000	2.920	0	0.000
140310.040	0.000	2.920	0	0.000
140370.071	0.000	2.920	0	0.000
140430.034	0.000	2.920	0	0.000
140490.048	0.000	2.929	0	0.000
140550.060	0.000	2.930	0	0.000
140610.044	0.000	2.930	0	0.000
140670.057	0.000	2.930	0	0.000
140730.056	0.000	2.934	0	0.000
140790.048	0.000	2.940	0	0.000
140850.052	0.000	2.933	0	0.000
140910.060	0.000	2.933	0	0.000
140970.054	0.000	2.940	0	0.000
141030.046	0.000	2.946	0	0.000
141090.035	0.000	2.949	0	0.000
141150.045	0.000	2.941	0	0.000
141210.052	0.000	2.950	0	0.000
141270.074	0.000	2.950	0	0.000
141330.031	0.000	2.950	0	0.000
141390.016	0.000	2.946	0	0.000
141450.040	0.000	2.958	0	0.000
141510.087	0.000	2.960	0	0.000
141570.091	0.000	2.960	0	0.000
141630.058	0.000	2.960	0	0.000
141690.048	0.000	2.967	0	0.000
141750.055	0.000	2.970	0	0.000
141810.034	0.000	2.970	0	0.000
141870.041	0.000	2.970	0	0.000
141930.071	0.000	2.975	0	0.000
141990.087	0.000	2.980	0	0.000
142050.077	0.000	2.980	0	0.000
142110.059	0.000	2.980	0	0.000
142170.069	0.000	2.983	0	0.000
142230.075	0.000	2.990	0	0.000
142290.065	0.000	2.986	0	0.000
142350.042	0.000	2.986	0	0.000
142410.037	0.000	2.990	0	0.000
142470.068	0.000	3.000	0	0.000
142530.073	0.000	2.997	0	0.000
142590.030	0.000	2.992	0	0.000
142650.015	0.000	3.000	0	0.000
142710.034	0.000	3.000	0	0.000
142770.063	0.000	3.000	0	0.000
142830.043	0.000	3.000	0	0.000
142890.060	0.000	3.010	0	0.000
142950.064	0.000	3.010	0	0.000
143010.021	0.000	3.010	0	0.000
143070.051	0.000	3.010	0	0.000
143130.075	0.000	3.015	0	0.000
143190.057	0.000	3.020	0	0.000
143250.042	0.000	3.018	0	0.000
143310.054	0.000	3.018	0	0.000
143370.043	0.000	3.026	0	0.000
143430.050	0.000	3.030	0	0.000
143490.054	0.000	3.030	0	0.000
143550.037	0.000	3.030	0	0.000
143610.046	0.000	3.030	0	0.000
143670.031	0.000	3.037	0	0.000
143730.048	0.000	3.038	0	0.000
143790.062	0.000	3.033	0	0.000
143850.044	0.000	3.040	0	0.000
143910.076	0.000	3.047	0	0.000
143970.075	0.000	3.050	0	0.000
144030.045	0.000	3.050	0	0.000
144090.044	0.000	3.050	0	0.000
144150.026	0.000	3.053	0	0.000
144210.043	0.000	3.057	0	0.000
144270.048	0.000	3.054	0	0.000
144330.030	0.000	3.063	0	0.000
144390.077	0.000	3.070	0	0.000
144450.081	0.000	3.070	0	0.000
144510.043	0.000	3.070	0	0.000
144570.043	0.000	3.071	0	0.000
144630.070	0.000	3.080	0	0.000
144690.079	0.000	3.080	0	0.000
144750.064	0.000	3.080	0	0.000
144810.021	0.000	3.085	0	0.000
144870.058	0.000	3.090	0	0.000
144930.087	0.000	3.090	0	0.000
144990.059	0.000	3.090	0	0.000
145050.034	0.000	3.092	0	0.000
145110.066	0.000	3.100	0	0.000
145170.075	0.000	3.100	0	0.000
145230.032	0.000	3.100	0	0.000
145290.037	0.000	3.103	0	0.000
145350.044	0.000	3.110	0	0.000
145410.043	0.000	3.110	0	0.000
145470.083	0.000	3.110	0	0.000
145530.054	0.000	3.110	0	0.000
145590.034	0.000	3.115	0	0.000
145650.046	0.000	3.120	0	0.000
145710.035	0.000	3.112	0	0.000
145770.032	0.000	3.121	0	0.000
145830.079	0.000	3.130	0	0.000
145890.064	0.000	3.130	0	0.000
145950.016	0.000	3.130	0	0.000
146010.030	0.000	3.130	0	0.000
146070.045	0.000	3.136	0	0.000
146130.082	0.000	3.140	0	0.000
146190.061	0.000	3.135	0	0.000
146250.018	0.000	3.137	0	0.000
146310.018	0.000	3.148	0	0.000
146370.030	0.000	3.150	0	0.000
146430.049	0.000	3.150	0	0.000
146490.021	0.000	3.150	0	0.000
146550.011	0.000	3.156	0	0.000
146610.038	0.000	3.160	0	0.000
146670.052	0.000	3.152	0	0.000
146730.034	0.000	3.158	0	0.000
146790.048	0.000	3.170	0	0.000
146850.081	0.000	3.170	0	0.000
146910.050	0.000	3.170	0	0.000
146970.047	0.000	3.170	0	0.000
147030.061	0.000	3.170	0	0.000
147090.036	0.000	3.177	0	0.000
147150.058	0.000	3.180	0	0.000
147210.078	0.000	3.180	0	0.000
147270.039	0.000	3.189	0	0.000
147330.027	0.000	3.190	0	0.000
147390.056	0.000	3.190	0	0.000
147450.073	0.000	3.190	0	0.000
147510.037	0.000	3.193	0	0.000
147570.054	0.000	3.200	0	0.000
147630.089	0.000	3.197	0	0.000
147690.046	0.000	3.200	0	0.000
147750.035	0.000	3.208	0	0.000
147810.077	0.000	3.210	0	0.000
147870.062	0.000	3.210	0	0.000
147930.044	0.000	3.210	0	0.000
147990.043	0.000	3.210	0	0.000
148050.032	0.000	3.219	0	0.000
148110.050	0.000	3.220	0	0.000
148170.039	0.000	3.220	0	0.000
148230.051	0.000	3.222	0	0.000
148290.063	0.000	3.230	0	0.000
148350.038	0.000	3.230	0	0.000
148410.067	0.000	3.230	0	0.000
148470.049	0.000	3.230	0	0.000
148530.048	0.000	3.230	0	0.000
148590.063	0.000	3.230	0	0.000
148650.042	0.000	3.233	0	0.000
148710.045	0.000	3.240	0	0.000
148770.049	0.000	3.240	0	0.000
148830.061	0.000	3.250	0	0.000
148890.093	0.000	3.245	0	0.000
148950.070	0.000	3.244	0	0.000
149010.064	0.000	3.250	0	0.000
149070.072	0.000	3.250	0	0.000
149130.048	0.000	3.252	0	0.000
149190.061	0.000	3.260	0	0.000
149250.075	0.000	3.260	0	0.000
149310.095	0.000	3.268	0	0.000
149370.079	0.000	3.270	0	0.000
149430.054	0.000	3.270	0	0.000
149490.025	0.000	3.270	0	0.000
149550.034	0.000	3.279	0	0.000
149610.067	0.000	3.280	0	0.000
149670.051	0.000	3.280	0	0.000
149730.028	0.000	3.284	0	0.000
149790.050	0.000	3.290	0	0.000
149850.040	0.000	3.290	0	0.000
149910.011	0.000	3.290	0	0.000
149970.016	0.000	3.296	0	0.000
150030.068	0.000	3.309	0	0.000
150090.078	0.000	3.310	0	0.000
150150.057	0.000	3.310	0	0.000
150210.047	0.000	3.310	0	0.000
150270.061	0.000	3.320	0	0.000
150330.056	0.000	3.320	0	0.000
150390.035	0.000	3.320	0	0.000
150450.047	0.000	3.320	0	0.000
150510.094	0.000	3.328	0	0.000
150570.069	0.000	3.330	0	0.000
150630.058	0.000	3.330	0	0.000
150690.039	0.000	3.338	0	0.000
150750.052	0.000	3.340	0	0.000
150810.077	0.000	3.340	0	0.000
150870.038	0.000	3.340	0	0.000
150930.002	0.000	3.340	0	0.000
150990.020	0.000	3.350	0	0.000
151050.045	0.000	3.350	0	0.000
151110.066	0.000	3.351	0	0.000
151170.073	0.000	3.360	0	0.000
151230.058	0.000	3.360	0	0.000
151290.069	0.000	3.360	0	0.000
151350.059	0.000	3.360	0	0.000
151410.028	0.000	3.369	0	0.000
151470.036	0.000	3.370	0	0.000
151530.060	0.000	3.370	0	0.000
151590.062	0.000	3.378	0	0.000
151650.079	0.000	3.380	0	0.000
151710.094	0.000	3.390	0	0.000
151770.058	0.000	3.385	0	0.000
151830.014	0.000	3.385	0	0.000
151890.034	0.000	3.390	0	0.000
151950.067	0.000	3.399	0	0.000
152010.066	0.000	3.400	0	0.000
152070.066	0.000	3.400	0	0.000
152130.042	0.000	3.406	0	0.000
152190.070	0.000	3.410	0	0.000
152250.079	0.000	3.410	0	0.000
152310.065	0.000	3.410	0	0.000
152370.050	0.000	3.417	0	0.000
152430.053	0.000	3.423	0	0.000
152490.067	0.000	3.430	0	0.000
152550.057	0.000	3.430	0	0.000
152610.046	0.000	3.430	0	0.000
152670.022	0.000	3.438	0	0.000
152730.030	0.000	3.435	0	0.000
152790.041	0.000	3.433	0	0.000
152850.076	0.000	3.443	0	0.000
152910.083	0.000	3.450	0	0.000
152970.073	0.000	3.450	0	0.000
153030.054	0.000	3.450	0	0.000
153090.082	0.000	3.460	0	0.000
153150.091	0.000	3.460	0	0.000
153210.047	0.000	3.460	0	0.000
153270.027	0.000	3.461	0	0.000
153330.070	0.000	3.470	0	0.000
153390.059	0.000	3.477	0	0.000
153450.049	0.000	3.480	0	0.000
153510.068	0.000	3.480	0	0.000
153570.058	0.000	3.484	0	0.000
153630.042	0.000	3.490	0	0.000
153690.042	0.000	3.490	0	0.000
153750.033	0.000	3.490	0	0.000
153810.022	0.000	3.498	0	0.000
153870.035	0.000	3.502	0	0.000
153930.065	0.000	3.510	0	0.000
153990.069	0.000	3.503	0	0.000
154050.035	0.000	3.504	0	0.000
154110.020	0.000	3.490	0	0.000
154170.024	0.000	3.490	0	0.000
154230.049	0.000	3.490	0	0.000
154290.038	0.000	3.500	0	0.000
154350.047	0.000	3.508	0	0.000
154410.037	0.000	3.510	0	0.000
154470.020	0.000	3.510	0	0.000
154530.026	0.000	3.512	0	0.000
154590.054	0.000	3.520	0	0.000
154650.053	0.000	3.520	0	0.000
154710.054	0.000	3.520	0	0.000
154770.034	0.000	3.524	0	0.000
154830.037	0.000	3.535	0	0.000
154890.071	0.000	3.539	0	0.000
154950.061	0.000	3.533	0	0.000
155010.007	0.000	3.540	0	0.000
155070.035	0.000	3.547	0	0.000
155130.054	0.000	3.550	0	0.000
155190.054	0.000	3.542	0	0.000
155250.015	0.000	3.550	0	0.000
155310.029	0.000	3.560	0	0.000
155370.047	0.000	3.559	0	0.000
155430.033	0.000	3.551	0	0.000
155490.048	0.000	3.560	0	0.000
155550.036	0.000	3.565	0	0.000
155610.035	0.000	3.570	0	0.000
155670.060	0.000	3.562	0	0.000
155730.050	0.000	3.573	0	0.000
155790.049	0.000	3.580	0	0.000
155850.038	0.000	3.589	0	0.000
155910.048	0.000	3.581	0	0.000
155970.018	0.000	3.589	0	0.000
156030.052	0.000	3.593	0	0.000
156090.076	0.000	3.600	0	0.000
156150.051	0.000	3.590	0	0.000
156210.031	0.000	3.600	0	0.000
156270.060	0.000	3.610	0	0.000
156330.059	0.000	3.610	0	0.000
156390.055	0.000	3.610	0	0.000
156450.064	0.000	3.614	0	0.000
156510.058	0.000	3.620	0	0.000
156570.062	0.000	3.620	0	0.000
156630.068	0.000	3.620	0	0.000
156690.071	0.000	3.629	0	0.000
156750.055	0.000	3.636	0	0.000
156810.055	0.000	3.640	0	0.000
156870.059	0.000	3.640	0	0.000
156930.040	0.000	3.640	0	0.000
156990.073	0.000	3.650	0	0.000
157050.063	0.000	3.650	0	0.000
157110.028	0.000	3.650	0	0.000
157170.028	0.000	3.656	0	0.000
157230.066	0.000	3.663	0	0.000
157290.071	0.000	3.670	0	0.000
157350.040	0.000	3.670	0	0.000
157410.036	0.000	3.670	0	0.000
157470.070	0.000	3.678	0	0.000
157530.084	0.000	3.680	0	0.000
157590.078	0.000	3.680	0	0.000
157650.059	0.000	3.682	0	0.000
157710.072	0.000	3.690	0	0.000
157770.062	0.000	3.697	0	0.000
157830.063	0.000	3.693	0	0.000
157890.057	0.000	3.696	0	0.000
157950.031	0.000	3.702	0	0.000
158010.049	0.000	3.710	0	0.000
158070.059	0.000	3.703	0	0.000
158130.039	0.000	3.711	0	0.000
158190.088	0.000	3.720	0	0.000
158250.072	0.000	3.725	0	0.000
158310.037	0.000	3.724	0	0.000
158370.017	0.000	3.721	0	0.000
158430.042	0.000	3.730	0	0.000
158490.075	0.000	3.737	0	0.000
158550.055	0.000	3.737	0	0.000
158610.029	0.000	3.739	0	0.000
158670.024	0.000	3.749	0	0.000
158730.053	0.000	3.756	0	0.000
158790.083	0.000	3.755	0	0.000
158850.048	0.000	3.750	0	0.000
158910.028	0.000	3.760	0	0.000
158970.061	0.000	3.766	0	0.000
159030.051	0.000	3.768	0	0.000
159090.045	0.000	3.766	0	0.000
159150.066	0.000	3.776	0	0.000
159210.074	0.000	3.780	0	0.000
159270.048	0.000	3.780	0	0.000
159330.029	0.000	3.780	0	0.000
159390.054	0.000	3.789	0	0.000
159450.087	0.000	3.795	0	0.000
159510.061	0.000	3.796	0	0.000
159570.046	0.000	3.794	0	0.000
159630.026	0.000	3.808	0	0.000
159690.035	0.000	3.810	0	0.000
159750.024	0.000	3.810	0	0.000
159810.030	0.000	3.810	0	0.000
159870.054	0.000	3.818	0	0.000
159930.048	0.000	3.820	0	0.000
159990.022	0.000	3.827	0	0.000
160050.047	0.000	3.821	0	0.000
160110.027	0.000	3.830	0	0.000
160170.051	0.000	3.838	0	0.000
160230.065	0.000	3.840	0	0.000
160290.050	0.000	3.840	0	0.000
160350.049	0.000	3.845	0	0.000
160410.074	0.000	3.850	0	0.000
160470.063	0.000	3.850	0	0.000
160530.038	0.000	3.852	0	0.000
160590.077	0.000	3.860	0	0.000
160650.077	0.000	3.869	0	0.000
160710.036	0.000	3.870	0	0.000
160770.041	0.000	3.870	0	0.000
160830.021	0.000	3.873	0	0.000
160890.040	0.000	3.880	0	0.000
160950.054	0.000	3.880	0	0.000
161010.029	0.000	3.880	0	0.000
161070.019	0.000	3.889	0	0.000
161130.057	0.000	3.890	0	0.000
161190.082	0.000	3.899	0	0.000
161250.071	0.000	3.900	0	0.000
161310.041	0.000	3.900	0	0.000
161370.001	0.000	3.907	0	0.000
161430.035	0.000	3.907	0	0.000
161490.020	0.000	3.902	0	0.000
161550.035	0.000	3.914	0	0.000
161610.053	0.000	3.922	0	0.000
161670.048	0.000	3.929	0	0.000
161730.062	0.000	3.920	0	0.000
161790.048	0.000	3.926	0	0.000
161850.062	0.000	3.930	0	0.000
161910.081	0.000	3.939	0	0.000
161970.080	0.000	3.940	0	0.000
162030.070	0.000	3.942	0	0.000
162090.054	0.000	3.950	0	0.000
162150.054	0.000	3.952	0	0.000
162210.053	0.000	3.958	0	0.000
162270.048	0.000	3.953	0	0.000
162330.033	0.000	3.965	0	0.000
162390.042	0.000	3.970	0	0.000
162450.051	0.000	3.965	0	0.000
162510.056	0.000	3.967	0	0.000
162570.066	0.000	3.978	0	0.000
162630.065	0.000	3.980	0	0.000
162690.029	0.000	3.980	0	0.000
162750.034	0.000	3.980	0	0.000
162810.049	0.000	3.984	0	0.000
162870.043	0.000	3.990	0	0.000
162930.042	0.000	3.990	0	0.000
162990.032	0.000	3.993	0	0.000
163050.036	0.000	4.003	0	0.000
163110.035	0.000	4.010	0	0.000
163170.060	0.000	4.010	0	0.000
163230.064	0.000	4.010	0	0.000
163290.019	0.000	4.010	0	0.000
163350.029	0.000	4.020	0	0.000
163410.078	0.000	4.020	0	0.000
163470.082	0.000	4.021	0	0.000
163530.057	0.000	4.030	0	0.000
163590.046	0.000	4.035	0	0.000
163650.046	0.000	4.035	0	0.000
163710.030	0.000	4.031	0	0.000
163770.045	0.000	4.040	0	0.000
163830.089	0.000	4.040	0	0.000
163890.044	0.000	4.045	0	0.000
163950.038	0.000	4.046	0	0.000
164010.028	0.000	4.052	0	0.000
164070.057	0.000	4.060	0	0.000
164130.062	0.000	4.060	0	0.000
164190.027	0.000	4.060	0	0.000
164250.021	0.000	4.061	0	0.000
164310.055	0.000	4.070	0	0.000
164370.075	0.000	4.070	0	0.000
164430.025	0.000	4.070	0	0.000
164490.019	0.000	4.080	0	0.000
164550.053	0.000	4.080	0	0.000
164610.038	0.000	4.088	0	0.000
164670.052	0.000	4.080	0	0.000
164730.047	0.000	4.086	0	0.000
164790.036	0.000	4.090	0	0.000
164850.060	0.000	4.090	0	0.000
164910.025	0.000	4.091	0	0.000
164970.059	0.000	4.100	0	0.000
165030.069	0.000	4.108	0	0.000
165090.038	0.000	4.108	0	0.000
165150.008	0.000	4.100	0	0.000
165210.008	0.000	4.110	0	0.000
165270.047	0.000	4.110	0	0.000
165330.046	0.000	4.110	0	0.000
165390.036	0.000	4.118	0	0.000
165450.060	0.000	4.127	0	0.000
165510.060	0.000	4.130	0	0.000
165570.069	0.000	4.130	0	0.000
165630.019	0.000	4.130	0	0.000
165690.034	0.000	4.133	0	0.000
165750.083	0.000	4.140	0	0.000
165810.082	0.000	4.140	0	0.000
165870.062	0.000	4.140	0	0.000
165930.051	0.000	4.146	0	0.000
165990.061	0.000	4.150	0	0.000
166050.045	0.000	4.158	0	0.000
166110.029	0.000	4.151	0	0.000
166170.024	0.000	4.152	0	0.000
166230.024	0.000	4.164	0	0.000
166290.028	0.000	4.170	0	0.000
166350.052	0.000	4.170	0	0.000
166410.047	0.000	4.177	0	0.000
166470.041	0.000	4.182	0	0.000
166530.056	0.000	4.190	0	0.000
166590.075	0.000	4.183	0	0.000
166650.025	0.000	4.192	0	0.000
166710.054	0.000	4.200	0	0.000
166770.084	0.000	4.210	0	0.000
166830.058	0.000	4.210	0	0.000
166890.023	0.000	4.214	0	0.000
166950.067	0.000	4.220	0	0.000
167010.067	0.000	4.228	0	0.000
167070.051	0.000	4.230	0	0.000
167130.066	0.000	4.230	0	0.000
167190.035	0.000	4.239	0	0.000
167250.030	0.000	4.249	0	0.000
167310.054	0.000	4.242	0	0.000
167370.054	0.000	4.251	0	0.000
167430.078	0.000	4.260	0	0.000
167490.058	0.000	4.260	0	0.000
167550.037	0.000	4.260	0	0.000
167610.042	0.000	4.263	0	0.000
167670.031	0.000	4.275	0	0.000
167730.041	0.000	4.280	0	0.000
167790.055	0.000	4.280	0	0.000
167850.035	0.000	4.288	0	0.000
167910.054	0.000	4.293	0	0.000
167970.054	0.000	4.300	0	0.000
168030.043	0.000	4.300	0	0.000
168090.028	0.000	4.302	0	0.000
168150.072	0.000	4.311	0	0.000
168210.056	0.000	4.320	0	0.000
168270.031	0.000	4.312	0	0.000
168330.036	0.000	4.320	0	0.000
168390.035	0.000	4.327	0	0.000
168450.059	0.000	4.338	0	0.000
168510.074	0.000	4.332	0	0.000
168570.043	0.000	4.338	0	0.000
168630.058	0.000	4.344	0	0.000
168690.057	0.000	4.354	0	0.000
168750.047	0.000	4.355	0	0.000
168810.076	0.000	4.360	0	0.000
168870.061	0.000	4.365	0	0.000
168930.036	0.000	4.370	0	0.000
168990.050	0.000	4.370	0	0.000
169050.039	0.000	4.371	0	0.000
169110.044	0.000	4.380	0	0.000
169170.058	0.000	4.389	0	0.000
169230.058	0.000	4.390	0	0.000
169290.032	0.000	4.391	0	0.000
169350.037	0.000	4.400	0	0.000
169410.036	0.000	4.410	0	0.000
169470.056	0.000	4.410	0	0.000
169530.065	0.000	4.412	0	0.000
169590.060	0.000	4.420	0	0.000
169650.059	0.000	4.426	0	0.000
169710.089	0.000	4.430	0	0.000
169770.058	0.000	4.431	0	0.000
169830.058	0.000	4.440	0	0.000
169890.057	0.000	4.444	0	0.000
169950.031	0.000	4.448	0	0.000
170010.061	0.000	4.449	0	0.000
170070.070	0.000	4.454	0	0.000
170130.055	0.000	4.464	0	0.000
170190.044	0.000	4.463	0	0.000
170250.024	0.000	4.469	0	0.000
170310.043	0.000	4.479	0	0.000
170370.058	0.000	4.480	0	0.000
170430.087	0.000	4.486	0	0.000
170490.077	0.000	4.483	0	0.000
170550.056	0.000	4.492	0	0.000
170610.096	0.000	4.500	0	0.000
170670.085	0.000	4.502	0	0.000
170730.075	0.000	4.510	0	0.000
170790.054	0.000	4.518	0	0.000
170850.059	0.000	4.520	0	0.000
170910.058	0.000	4.520	0	0.000
170970.037	0.000	4.530	0	0.000
171030.087	0.000	4.530	0	0.000
171090.087	0.000	4.539	0	0.000
171150.071	0.000	4.541	0	0.000
171210.046	0.000	4.550	0	0.000
171270.050	0.000	4.553	0	0.000
171330.060	0.000	4.560	0	0.000
171390.074	0.000	4.560	0	0.000
171450.073	0.000	4.566	0	0.000
171510.088	0.000	4.570	0	0.000
171570.073	0.000	4.579	0	0.000
171630.047	0.000	4.572	0	0.000
171690.026	0.000	4.584	0	0.000
171750.046	0.000	4.590	0	0.000
171810.045	0.000	4.597	0	0.000
171870.065	0.000	4.597	0	0.000
171930.059	0.000	4.602	0	0.000
171990.079	0.000	4.610	0	0.000
172050.083	0.000	4.613	0	0.000
172110.083	0.000	4.618	0	0.000
172170.067	0.000	4.620	0	0.000
172230.084	0.000	4.630	0	0.000
172290.067	0.000	4.631	0	0.000
172350.061	0.000	4.635	0	0.000
172410.076	0.000	4.636	0	0.000
172470.065	0.000	4.645	0	0.000
172530.049	0.000	4.651	0	0.000
172590.064	0.000	4.660	0	0.000
172650.078	0.000	4.660	0	0.000
172710.042	0.000	4.672	0	0.000
172770.077	0.000	4.680	0	0.000
172830.077	0.000	4.676	0	0.000
172890.056	0.000	4.677	0	0.000
172950.070	0.000	4.688	0	0.000
173010.090	0.000	4.693	0	0.000
173070.060	0.000	4.696	0	0.000
173130.029	0.000	4.698	0	0.000
173190.044	0.000	4.707	0	0.000
173250.058	0.000	4.716	0	0.000
173310.073	0.000	4.712	0	0.000
173370.052	0.000	4.711	0	0.000
173430.051	0.000	4.723	0	0.000
173490.076	0.000	4.730	0	0.000
173550.051	0.000	4.730	0	0.000
173610.045	0.000	4.736	0	0.000
173670.065	0.000	4.743	0	0.000
173730.034	0.000	4.750	0	0.000
173790.038	0.000	4.750	0	0.000
173850.047	0.000	4.755	0	0.000
173910.062	0.000	4.764	0	0.000
173970.047	0.000	4.770	0	0.000
174030.052	0.000	4.770	0	0.000
174090.045	0.000	4.772	0	0.000
174150.075	0.000	4.780	0	0.000
174210.050	0.000	4.788	0	0.000
174270.034	0.000	4.790	0	0.000
174330.034	0.000	4.789	0	0.000
174390.033	0.000	4.800	0	0.000
174450.053	0.000	4.807	0	0.000
174510.052	0.000	4.810	0	0.000
174570.077	0.000	4.810	0	0.000
174630.041	0.000	4.822	0	0.000
174690.061	0.000	4.825	0	0.000
174750.060	0.000	4.820	0	0.000
174810.014	0.000	4.820	0	0.000
174870.013	0.000	4.829	0	0.000
174930.049	0.000	4.843	0	0.000
174990.073	0.000	4.848	0	0.000
175050.087	0.000	4.850	0	0.000
175110.077	0.000	4.860	0	0.000
175170.076	0.000	4.870	0	0.000
175230.091	0.000	4.870	0	0.000
175290.075	0.000	4.870	0	0.000
175350.054	0.000	4.879	0	0.000
175410.094	0.000	4.888	0	0.000
175470.069	0.000	4.890	0	0.000
175530.063	0.000	4.899	0	0.000
175590.083	0.000	4.905	0	0.000
175650.082	0.000	4.913	0	0.000
175710.062	0.000	4.910	0	0.000
175770.021	0.000	4.915	0	0.000
175830.056	0.000	4.927	0	0.000
175890.050	0.000	4.940	0	0.000
175950.050	0.000	4.940	0	0.000
176010.064	0.000	4.944	0	0.000
176070.054	0.000	4.952	0	0.000
176130.053	0.000	4.960	0	0.000
176190.078	0.000	4.960	0	0.000
176250.056	0.000	4.964	0	0.000
176310.047	0.000	4.970	0	0.000
176370.061	0.000	4.983	0	0.000
176430.096	0.000	4.980	0	0.000
176490.074	0.000	4.987	0	0.000
176550.065	0.000	4.995	0	0.000
176610.039	0.000	5.003	0	0.000
176670.039	0.000	5.000	0	0.000
176730.032	0.000	5.001	0	0.000
176790.047	0.000	5.012	0	0.000
176850.057	0.000	5.020	0	0.000
176910.071	0.000	5.020	0	0.000
176970.060	0.000	5.023	0	0.000
177030.045	0.000	5.039	0	0.000
177090.030	0.000	5.040	0	0.000
177150.040	0.000	5.040	0	0.000
177210.018	0.000	5.040	0	0.000
177270.028	0.000	5.049	0	0.000
177330.063	0.000	5.059	0	0.000
177390.067	0.000	5.060	0	0.000
177450.057	0.000	5.061	0	0.000
177510.041	0.000	5.070	0	0.000
177570.071	0.000	5.075	0	0.000
177630.085	0.000	5.078	0	0.000
177690.060	0.000	5.080	0	0.000
177750.044	0.000	5.083	0	0.000
177810.069	0.000	5.093	0	0.000
177870.093	0.000	5.094	0	0.000
177930.078	0.000	5.099	0	0.000
177990.047	0.000	5.110	0	0.000
178050.047	0.000	5.111	0	0.000
178110.051	0.000	5.117	0	0.000
178170.066	0.000	5.111	0	0.000
178230.044	0.000	5.120	0	0.000
178290.035	0.000	5.129	0	0.000
178350.029	0.000	5.134	0	0.000
178410.059	0.000	5.133	0	0.000
178470.062	0.000	5.147	0	0.000
178530.058	0.000	5.152	0	0.000
178590.042	0.000	5.150	0	0.000
178650.031	0.000	5.151	0	0.000
178710.030	0.000	5.165	0	0.000
178770.065	0.000	5.166	0	0.000
178830.090	0.000	5.170	0	0.000
178890.079	0.000	5.172	0	0.000
178950.069	0.000	5.180	0	0.000
179010.078	0.000	5.191	0	0.000
179070.078	0.000	5.194	0	0.000
179130.067	0.000	5.190	0	0.000
179190.046	0.000	5.197	0	0.000
179250.071	0.000	5.211	0	0.000
179310.071	0.000	5.210	0	0.000
179370.039	0.000	5.215	0	0.000
179430.050	0.000	5.221	0	0.000
179490.044	0.000	5.232	0	0.000
179550.059	0.000	5.234	0	0.000
179610.068	0.000	5.230	0	0.000
179670.047	0.000	5.240	0	0.000
179730.062	0.000	5.250	0	0.000
179790.077	0.000	5.250	0	0.000
179850.055	0.000	5.253	0	0.000
179910.076	0.000	5.267	0	0.000
179970.070	0.000	5.274	0	0.000
180030.070	0.000	5.273	0	0.000
180090.078	0.000	5.272	0	0.000
180150.067	0.000	5.285	0	0.000
180210.073	0.000	5.293	0	0.000
180270.057	0.000	5.290	0	0.000
180330.021	0.000	5.297	0	0.000
180390.037	0.000	5.307	0	0.000
180450.051	0.000	5.304	0	0.000
180510.034	0.000	5.310	0	0.000
180570.045	0.000	5.312	0	0.000
180630.069	0.000	5.325	0	0.000
180690.069	0.000	5.330	0	0.000
180750.033	0.000	5.330	0	0.000
180810.027	0.000	5.339	0	0.000
180870.082	0.000	5.343	0	0.000
180930.082	0.000	5.358	0	0.000
180990.071	0.000	5.332	0	0.000
181050.060	0.000	5.341	0	0.000
181110.059	0.000	5.361	0	0.000
181170.080	0.000	5.375	0	0.000
181230.064	0.000	5.380	0	0.000
181290.044	0.000	5.375	0	0.000
181350.017	0.000	5.394	0	0.000
181410.033	0.000	5.406	0	0.000
181470.052	0.000	5.398	0	0.000
181530.060	0.000	5.402	0	0.000
181590.050	0.000	5.413	0	0.000
181650.056	0.000	5.428	0	0.000
181710.080	0.000	5.422	0	0.000
181770.063	0.000	5.419	0	0.000
181830.048	0.000	5.443	0	0.000
181890.064	0.000	5.450	0	0.000
181950.043	0.000	5.456	0	0.000
182010.033	0.000	5.456	0	0.000
182070.046	0.000	5.475	0	0.000
182130.092	0.000	5.480	0	0.000
182190.066	0.000	5.483	0	0.000
182250.071	0.000	5.484	0	0.000
182310.100	0.000	5.491	0	0.000
182370.084	0.000	5.500	0	0.000
182430.079	0.000	5.500	0	0.000
182490.037	0.000	5.515	0	0.000
182550.038	0.000	5.523	0	0.000
182610.042	0.000	5.529	0	0.000
182670.067	0.000	5.539	0	0.000
182730.081	0.000	5.538	0	0.000
182790.034	0.000	5.530	0	0.000
182850.049	0.000	5.547	0	0.000
182910.095	0.000	5.563	0	0.000
182970.069	0.000	5.562	0	0.000
183030.042	0.000	5.572	0	0.000
183090.063	0.000	5.582	0	0.000
183150.038	0.000	5.594	0	0.000
183210.057	0.000	5.583	0	0.000
183270.050	0.000	5.597	0	0.000
183330.051	0.000	5.618	0	0.000
183390.061	0.000	5.620	0	0.000
183450.090	0.000	5.620	0	0.000
183510.063	0.000	5.635	0	0.000
183570.084	0.000	5.646	0	0.000
183630.084	0.000	5.650	0	0.000
183690.083	0.000	5.651	0	0.000
183750.073	0.000	5.656	0	0.000
183810.057	0.000	5.677	0	0.000
183870.081	0.000	5.680	0	0.000
183930.076	0.000	5.679	0	0.000
183990.054	0.000	5.692	0	0.000
184050.075	0.000	5.699	0	0.000
184110.039	0.000	5.708	0	0.000
184170.034	0.000	5.709	0	0.000
184230.033	0.000	5.715	0	0.000
184290.038	0.000	5.706	0	0.000
184350.026	0.000	5.732	0	0.000
184410.072	0.000	5.727	0	0.000
184470.080	0.000	5.735	0	0.000
184530.086	0.000	5.751	0	0.000
184590.055	0.000	5.764	0	0.000
184650.055	0.000	5.761	0	0.000
184710.048	0.000	5.773	0	0.000
184770.074	0.000	5.769	0	0.000
184830.062	0.000	5.785	0	0.000
184890.083	0.000	5.780	0	0.000
184950.051	0.000	5.791	0	0.000
185010.077	0.000	5.809	0	0.000
185070.091	0.000	5.817	0	0.000
185130.086	0.000	5.824	0	0.000
185190.090	0.000	5.824	0	0.000
185250.100	0.000	5.835	0	0.000
185310.079	0.000	5.838	0	0.000
185370.084	0.000	5.833	0	0.000
185430.056	0.000	5.856	0	0.000
185490.038	0.000	5.873	0	0.000
185550.037	0.000	5.873	0	0.000
185610.045	0.000	5.879	0	0.000
185670.066	0.000	5.886	0	0.000
185730.065	0.000	5.910	0	0.000
185790.060	0.000	5.910	0	0.000
185850.054	0.000	5.914	0	0.000
185910.059	0.000	5.926	0	0.000
185970.063	0.000	5.941	0	0.000
186030.063	0.000	5.949	0	0.000
186090.037	0.000	5.952	0	0.000
186150.027	0.000	5.953	0	0.000
186210.061	0.000	5.957	0	0.000
186270.096	0.000	5.970	0	0.000
186330.070	0.000	5.986	0	0.000
186390.070	0.000	5.973	0	0.000
186450.037	0.000	6.007	0	0.000
186510.059	0.000	6.041	0	0.000
186570.068	0.000	6.033	0	0.000
186630.021	0.000	6.042	0	0.000
186690.042	0.000	6.062	0	0.000
186750.072	0.000	6.068	0	0.000
186810.076	0.000	6.067	0	0.000
186870.044	0.000	6.074	0	0.000
186930.075	0.000	6.084	0	0.000
186990.075	0.000	6.098	0	0.000
187050.064	0.000	6.083	0	0.000
187110.037	0.000	6.090	0	0.000
187170.036	0.000	6.097	0	0.000
187230.021	0.000	6.110	0	0.000
187290.057	0.000	6.127	0	0.000
187350.067	0.000	6.112	0	0.000
187410.054	0.000	6.126	0	0.000
187470.064	0.000	6.138	0	0.000
187530.075	0.000	6.154	0	0.000
187590.049	0.000	6.151	0	0.000
187650.017	0.000	6.154	0	0.000
187710.049	0.000	6.170	0	0.000
187770.038	0.000	6.181	0	0.000
187830.042	0.000	6.173	0	0.000
187890.030	0.000	6.196	0	0.000
187950.077	0.000	6.206	0	0.000
188010.076	0.000	6.221	0	0.000
188070.075	0.000	6.226	0	0.000
188130.100	0.000	6.227	0	0.000
188190.074	0.000	6.236	0	0.000
188250.049	0.000	6.263	0	0.000
188310.038	0.000	6.243	0	0.000
188370.031	0.000	6.263	0	0.000
188430.052	0.000	6.279	0	0.000
188490.052	0.000	6.290	0	0.000
188550.086	0.000	6.287	0	0.000
188610.054	0.000	6.299	0	0.000
188670.065	0.000	6.301	0	0.000
188730.065	0.000	6.306	0	0.000
188790.064	0.000	6.312	0	0.000
188850.059	0.000	6.318	0	0.000
188910.063	0.000	6.332	0	0.000
188970.083	0.000	6.347	0	0.000
189030.077	0.000	6.355	0	0.000
189090.087	0.000	6.356	0	0.000
189150.086	0.000	6.371	0	0.000
189210.076	0.000	6.380	0	0.000
189270.080	0.000	6.380	0	0.000
189330.067	0.000	6.375	0	0.000
189390.067	0.000	6.400	0	0.000
189450.054	0.000	6.404	0	0.000
189510.028	0.000	6.417	0	0.000
189570.053	0.000	6.412	0	0.000
189630.060	0.000	6.433	0	0.000
189690.082	0.000	6.436	0	0.000
189750.051	0.000	6.439	0	0.000
189810.035	0.000	6.455	0	0.000
189870.035	0.000	6.454	0	0.000
189930.017	0.000	6.472	0	0.000
189990.069	0.000	6.480	0	0.000
190050.068	0.000	6.483	0	0.000
190110.078	0.000	6.482	0	0.000
190170.060	0.000	6.491	0	0.000
190230.057	0.000	6.511	0	0.000
190290.051	0.000	6.514	0	0.000
190350.041	0.000	6.516	0	0.000
190410.040	0.000	6.533	0	0.000
190470.075	0.000	6.524	0	0.000
190530.052	0.000	6.537	0	0.000
190590.039	0.000	6.544	0	0.000
190650.043	0.000	6.560	0	0.000
190710.043	0.000	6.558	0	0.000
190770.010	0.000	6.567	0	0.000
190830.067	0.000	6.583	0	0.000
190890.071	0.000	6.585	0	0.000
190950.066	0.000	6.600	0	0.000
191010.085	0.000	6.591	0	0.000
191070.037	0.000	6.592	0	0.000
191130.007	0.000	6.608	0	0.000
191190.029	0.000	6.625	0	0.000
191250.058	0.000	6.623	0	0.000
191310.055	0.000	6.636	0	0.000
191370.062	0.000	6.645	0	0.000
191430.051	0.000	6.662	0	0.000
191490.056	0.000	6.652	0	0.000
191550.038	0.000	6.659	0	0.000
191610.032	0.000	6.664	0	0.000
191670.040	0.000	6.687	0	0.000
191730.044	0.000	6.683	0	0.000
191790.021	0.000	6.703	0	0.000
191850.048	0.000	6.692	0	0.000
191910.025	0.000	6.707	0	0.000
191970.057	0.000	6.704	0	0.000
192030.034	0.000	6.711	0	0.000
192090.041	0.000	6.723	0	0.000
192150.070	0.000	6.735	0	0.000
192210.080	0.000	6.731	0	0.000
192270.027	0.000	6.740	0	0.000
192330.039	0.000	6.757	0	0.000
192390.078	0.000	6.762	0	0.000
192450.103	0.000	6.760	0	0.000
192510.060	0.000	6.765	0	0.000
192570.077	0.000	6.782	0	0.000
192630.086	0.000	6.785	0	0.000
192690.056	0.000	6.786	0	0.000
192750.045	0.000	6.801	0	0.000
192810.045	0.000	6.800	0	0.000
192870.021	0.000	6.816	0	0.000
192930.044	0.000	6.815	0	0.000
192990.015	0.000	6.821	0	0.000
193050.038	0.000	6.834	0	0.000
193110.057	0.000	6.845	0	0.000
193170.082	0.000	6.850	0	0.000
193230.066	0.000	6.847	0	0.000
193290.023	0.000	6.850	0	0.000
193350.060	0.000	6.868	0	0.000
193410.054	0.000	6.870	0	0.000
193470.059	0.000	6.868	0	0.000
193530.066	0.000	6.880	0	0.000
193590.083	0.000	6.902	0	0.000
193650.082	0.000	6.903	0	0.000
193710.092	0.000	6.889	0	0.000
193770.069	0.000	6.902	0	0.000
193830.033	0.000	6.915	0	0.000
193890.060	0.000	6.925	0	0.000
193950.060	0.000	6.919	0	0.000
194010.017	0.000	6.925	0	0.000
194070.069	0.000	6.935	0	0.000
194130.058	0.000	6.946	0	0.000
194190.033	0.000	6.937	0	0.000
194250.009	0.000	6.953	0	0.000
194310.027	0.000	6.963	0	0.000
194370.026	0.000	6.964	0	0.000
194430.026	0.000	6.955	0	0.000
194490.017	0.000	6.967	0	0.000
194550.045	0.000	6.989	0	0.000
194610.044	0.000	6.991	0	0.000
194670.069	0.000	6.981	0	0.000
194730.060	0.000	6.996	0	0.000
194790.058	0.000	7.005	0	0.000
194850.047	0.000	7.009	0	0.000
194910.062	0.000	7.002	0	0.000
194970.033	0.000	7.015	0	0.000
195030.056	0.000	7.021	0	0.000
195090.045	0.000	7.038	0	0.000
195150.060	0.000	7.020	0	0.000
195210.051	0.000	7.031	0	0.000
195270.046	0.000	7.041	0	0.000
195330.068	0.000	7.053	0	0.000
195390.042	0.000	7.053	0	0.000
195450.042	0.000	7.062	0	0.000
195510.061	0.000	7.070	0	0.000
195570.061	0.000	7.075	0	0.000
195630.045	0.000	7.080	0	0.000
195690.065	0.000	7.083	0	0.000
195750.074	0.000	7.084	0	0.000
195810.049	0.000	7.089	0	0.000
195870.038	0.000	7.102	0	0.000
195930.048	0.000	7.104	0	0.000
195990.072	0.000	7.110	0	0.000
196050.097	0.000	7.122	0	0.000
196110.071	0.000	7.115	0	0.000
196170.033	0.000	7.115	0	0.000
196230.042	0.000	7.130	0	0.000
196290.065	0.000	7.136	0	0.000
196350.069	0.000	7.134	0	0.000
196410.036	0.000	7.143	0	0.000
196470.073	0.000	7.154	0	0.000
196530.083	0.000	7.159	0	0.000
196590.072	0.000	7.162	0	0.000
196650.047	0.000	7.160	0	0.000
196710.023	0.000	7.170	0	0.000
196770.061	0.000	7.171	0	0.000
196830.050	0.000	7.182	0	0.000
196890.040	0.000	7.176	0	0.000
196950.011	0.000	7.188	0	0.000
197010.064	0.000	7.197	0	0.000
197070.093	0.000	7.201	0	0.000
197130.078	0.000	7.200	0	0.000
197190.029	0.000	7.204	0	0.000
197250.061	0.000	7.221	0	0.000
197310.071	0.000	7.224	0	0.000
197370.060	0.000	7.217	0	0.000
197430.037	0.000	7.228	0	0.000
197490.044	0.000	7.235	0	0.000
197550.044	0.000	7.243	0	0.000
197610.043	0.000	7.231	0	0.000
197670.025	0.000	7.241	0	0.000
197730.054	0.000	7.243	0	0.000
197790.059	0.000	7.252	0	0.000
197850.071	0.000	7.246	0	0.000
197910.038	0.000	7.260	0	0.000
197970.045	0.000	7.271	0	0.000
198030.060	0.000	7.281	0	0.000
198090.059	0.000	7.271	0	0.000
198150.025	0.000	7.283	0	0.000
198210.063	0.000	7.282	0	0.000
198270.039	0.000	7.292	0	0.000
198330.062	0.000	7.290	0	0.000
198390.033	0.000	7.297	0	0.000
198450.061	0.000	7.306	0	0.000
198510.050	0.000	7.319	0	0.000
198570.045	0.000	7.315	0	0.000
198630.036	0.000	7.314	0	0.000
198690.036	0.000	7.325	0	0.000
198750.059	0.000	7.335	0	0.000
198810.073	0.000	7.329	0	0.000
198870.049	0.000	7.334	0	0.000
198930.034	0.000	7.341	0	0.000
198990.061	0.000	7.354	0	0.000
199050.051	0.000	7.357	0	0.000
199110.035	0.000	7.353	0	0.000
199170.037	0.000	7.364	0	0.000
199230.069	0.000	7.370	0	0.000
199290.069	0.000	7.369	0	0.000
199350.050	0.000	7.371	0	0.000
199410.063	0.000	7.380	0	0.000
199470.077	0.000	7.388	0	0.000
199530.062	0.000	7.383	0	0.000
199590.038	0.000	7.385	0	0.000
199650.052	0.000	7.399	0	0.000
199710.075	0.000	7.408	0	0.000
199770.095	0.000	7.407	0	0.000
199830.041	0.000	7.407	0	0.000
199890.035	0.000	7.418	0	0.000
199950.073	0.000	7.424	0	0.000
200010.048	0.000	7.425	0	0.000
200070.032	0.000	7.419	0	0.000
200130.008	0.000	6.471	0	0.000
200190.023	0.000	6.437	0	0.000
200250.047	0.000	6.435	0	0.000
200310.052	0.000	6.424	0	0.000
200370.041	0.000	6.428	0	0.000
200430.026	0.000	6.440	0	0.000
200490.020	0.000	6.446	0	0.000
200550.019	0.000	6.437	0	0.000
200610.024	0.000	6.448	0	0.000
200670.023	0.000	6.457	0	0.000
200730.023	0.000	6.460	0	0.000
200790.047	0.000	6.461	0	0.000
200850.062	0.000	6.471	0	0.000
200910.051	0.000	6.478	0	0.000
200970.026	0.000	6.488	0	0.000
201030.025	0.000	6.484	0	0.000
201090.035	0.000	6.488	0	0.000
201150.049	0.000	6.489	0	0.000
201210.064	0.000	6.500	0	0.000
201270.038	0.000	6.502	0	0.000
201330.008	0.000	6.507	0	0.000
201390.022	0.000	6.514	0	0.000
201450.027	0.000	6.524	0	0.000
201510.036	0.000	6.521	0	0.000
201570.066	0.000	6.523	0	0.000
201630.070	0.000	6.540	0	0.000
201690.055	0.000	6.547	0	0.000
201750.039	0.000	6.549	0	0.000
201810.054	0.000	6.550	0	0.000
201870.038	0.000	6.553	0	0.000
201930.027	0.000	6.570	0	0.000
201990.042	0.000	6.574	0	0.000
202050.026	0.000	6.562	0	0.000
202110.016	0.000	6.571	0	0.000
202170.015	0.000	6.583	0	0.000
202230.025	0.000	6.589	0	0.000
202290.034	0.000	6.580	0	0.000
202350.034	0.000	6.596	0	0.000
202410.053	0.000	6.609	0	0.000
202470.068	0.000	6.612	0	0.000
202530.052	0.000	6.610	0	0.000
202590.052	0.000	6.612	0	0.000
202650.036	0.000	6.622	0	0.000
202710.016	0.000	6.629	0	0.000
202770.030	0.000	6.631	0	0.000
202830.040	0.000	6.643	0	0.000
202890.054	0.000	6.646	0	0.000
202950.069	0.000	6.651	0	0.000
203010.053	0.000	6.641	0	0.000
203070.038	0.000	6.644	0	0.000
203130.022	0.000	6.660	0	0.000
203190.021	0.000	6.667	0	0.000
203250.021	0.000	6.677	0	0.000
203310.015	0.000	6.679	0	0.000
203370.045	0.000	6.692	0	0.000
203430.054	0.000	6.695	0	0.000
203490.044	0.000	6.693	0	0.000
203550.058	0.000	6.692	0	0.000
203610.068	0.000	6.701	0	0.000
203670.067	0.000	6.719	0	0.000
203730.057	0.000	6.715	0	0.000
203790.026	0.000	6.716	0	0.000
203850.011	0.000	6.722	0	0.000
203910.025	0.000	6.733	0	0.000
203970.055	0.000	6.731	0	0.000
204030.044	0.000	6.733	0	0.000
204090.029	0.000	6.735	0	0.000
204150.058	0.000	6.753	0	0.000
204210.073	0.000	6.758	0	0.000
204270.042	0.000	6.753	0	0.000
204330.017	0.000	6.768	0	0.000
204390.041	0.000	6.782	0	0.000
204450.070	0.000	6.781	0	0.000
204510.045	0.000	6.775	0	0.000
204570.039	0.000	6.781	0	0.000
204630.044	0.000	6.791	0	0.000
204690.028	0.000	6.795	0	0.000
204750.018	0.000	6.800	0	0.000
204810.007	0.000	6.810	0	0.000
204870.022	0.000	6.816	0	0.000
204930.021	0.000	6.822	0	0.000
204990.026	0.000	6.819	0	0.000
205050.040	0.000	6.827	0	0.000
205110.040	0.000	6.838	0	0.000
205170.039	0.000	6.851	0	0.000
205230.054	0.000	6.845	0	0.000
205290.068	0.000	6.857	0	0.000
205350.058	0.000	6.857	0	0.000
205410.057	0.000	6.874	0	0.000
205470.042	0.000	6.874	0	0.000
205530.031	0.000	6.877	0	0.000
205590.056	0.000	6.893	0	0.000
205650.055	0.000	6.907	0	0.000
205710.044	0.000	6.911	0	0.000
205770.044	0.000	6.919	0	0.000
205830.043	0.000	6.932	0	0.000
205890.058	0.000	6.940	0	0.000
205950.042	0.000	6.942	0	0.000
206010.042	0.000	6.947	0	0.000
206070.071	0.000	6.962	0	0.000
206130.041	0.000	6.972	0	0.000
206190.045	0.000	6.974	0	0.000
206250.060	0.000	6.982	0	0.000
206310.054	0.000	6.996	0	0.000
206370.054	0.000	7.008	0	0.000
206430.038	0.000	7.013	0	0.000
206490.043	0.000	7.011	0	0.000
206550.057	0.000	7.030	0	0.000
206610.067	0.000	7.041	0	0.000
206670.056	0.000	7.044	0	0.000
206730.046	0.000	7.049	0	0.000
206790.055	0.000	7.058	0	0.000
206850.055	0.000	7.070	0	0.000
206910.044	0.000	7.075	0	0.000
206970.028	0.000	7.066	0	0.000
207030.038	0.000	7.090	0	0.000
207090.053	0.000	7.104	0	0.000
207150.057	0.000	7.111	0	0.000
207210.056	0.000	7.106	0	0.000
207270.026	0.000	7.119	0	0.000
207330.030	0.000	7.121	0	0.000
207390.035	0.000	7.136	0	0.000
207450.044	0.000	7.139	0	0.000
207510.044	0.000	7.153	0	0.000
207570.018	0.000	7.163	0	0.000
207630.018	0.000	7.175	0	0.000
207690.022	0.000	7.165	0	0.000
207750.037	0.000	7.178	0	0.000
207810.031	0.000	7.193	0	0.000
207870.026	0.000	7.200	0	0.000
207930.030	0.000	7.202	0	0.000
207990.035	0.000	7.205	0	0.000
208050.044	0.000	7.219	0	0.000
208110.059	0.000	7.229	0	0.000
208170.048	0.000	7.237	0	0.000
208230.048	0.000	7.242	0	0.000
208290.062	0.000	7.251	0	0.000
208350.026	0.000	7.262	0	0.000
208410.021	0.000	7.257	0	0.000
208470.055	0.000	7.260	0	0.000
208530.060	0.000	7.276	0	0.000
208590.034	0.000	7.291	0	0.000
208650.014	0.000	7.294	0	0.000
208710.023	0.000	7.297	0	0.000
208770.038	0.000	7.312	0	0.000
208830.037	0.000	7.315	0	0.000
208890.042	0.000	7.312	0	0.000
208950.046	0.000	7.320	0	0.000
209010.046	0.000	7.328	0	0.000
209070.045	0.000	7.345	0	0.000
209130.045	0.000	7.347	0	0.000
209190.049	0.000	7.353	0	0.000
209250.049	0.000	7.364	0	0.000
209310.028	0.000	7.374	0	0.000
209370.013	0.000	7.375	0	0.000
209430.027	0.000	7.373	0	0.000
209490.032	0.000	7.390	0	0.000
209550.021	0.000	7.402	0	0.000
209610.020	0.000	7.402	0	0.000
209670.030	0.000	7.405	0	0.000
209730.044	0.000	7.411	0	0.000
209790.034	0.000	7.419	0	0.000
209850.033	0.000	7.425	0	0.000
209910.048	0.000	7.421	0	0.000
209970.037	0.000	7.437	0	0.000
210030.047	0.000	7.452	0	0.000
210090.056	0.000	7.456	0	0.000
210150.055	0.000	7.459	0	0.000
210210.070	0.000	7.476	0	0.000
210270.084	0.000	7.498	0	0.000
210330.059	0.000	7.513	0	0.000
210390.063	0.000	7.524	0	0.000
210450.063	0.000	7.562	0	0.000
210510.057	0.000	7.594	0	0.000
210570.067	0.000	7.646	0	0.000
210630.071	0.000	7.712	0	0.000
210690.071	0.000	7.813	0	0.000
210750.055	0.000	7.916	0	0.000
210810.070	0.000	8.000	0	0.000
210870.094	0.000	8.082	0	0.000
210930.099	0.000	8.186	0	0.000
210990.098	0.000	8.281	0	0.000
211050.078	0.000	8.370	0	0.000
211110.052	0.000	8.446	0	0.000
211170.067	0.000	8.530	0	0.000
211230.071	0.000	8.617	0	0.000
211290.076	0.000	8.689	0	0.000
211350.085	0.000	8.762	0	0.000
211410.070	0.000	8.841	0	0.000
211470.084	0.000	8.924	0	0.000
211530.088	0.000	9.006	0	0.000
211590.078	0.000	9.074	0	0.000
211650.077	0.000	9.147	0	0.000
211710.057	0.000	9.219	0	0.000
211770.066	0.000	9.287	0	0.000
211830.098	0.000	9.359	0	0.000
211890.095	0.000	9.416	0	0.000
211950.110	0.000	9.487	0	0.000
212010.115	0.000	9.555	0	0.000
212070.099	0.000	9.612	0	0.000
212130.083	0.000	9.657	0	0.000
212190.073	0.000	9.708	0	0.000
212250.092	0.000	9.751	0	0.000
212310.092	0.000	9.805	0	0.000
212370.056	0.000	9.842	0	0.000
212430.056	0.000	9.886	0	0.000
212490.070	0.000	9.925	0	0.000
212550.080	0.000	9.963	0	0.000
212610.079	0.000	9.998	0	0.000
212670.086	0.000	10.035	0	0.000
212730.073	0.000	10.076	0	0.000
212790.058	0.000	10.116	0	0.000
212850.082	0.000	10.135	0	0.000
212910.097	0.000	10.174	0	0.000
212970.076	0.000	10.209	0	0.000
213030.065	0.000	10.246	0	0.000
213090.060	0.000	10.269	0	0.000
213150.059	0.000	10.293	0	0.000
213210.059	0.000	10.328	0	0.000
213270.073	0.000	10.364	0	0.000
213330.098	0.000	10.381	0	0.000
213390.092	0.000	10.401	0	0.000
213450.067	0.000	10.447	0	0.000
213510.056	0.000	10.473	0	0.000
213570.071	0.000	10.484	0	0.000
213630.060	0.000	10.504	0	0.000
213690.075	0.000	10.530	0	0.000
213750.089	0.000	10.374	0	0.000
213810.039	0.000	10.241	0	0.000
213870.033	0.000	10.250	0	0.000
213930.058	0.000	10.283	0	0.000
213990.072	0.000	10.310	0	0.000
214050.072	0.000	10.319	0	0.000
214110.046	0.000	10.320	0	0.000
214170.051	0.000	10.345	0	0.000
214230.080	0.000	10.360	0	0.000
214290.055	0.000	10.381	0	0.000
214350.034	0.000	10.386	0	0.000
214410.029	0.000	10.406	0	0.000
214470.018	0.000	10.424	0	0.000
214530.023	0.000	10.439	0	0.000
214590.027	0.000	10.441	0	0.000
214650.027	0.000	10.452	0	0.000
214710.031	0.000	10.471	0	0.000
214770.025	0.000	10.493	0	0.000
214830.050	0.000	10.487	0	0.000
214890.064	0.000	10.506	0	0.000
214950.034	0.000	10.524	0	0.000
215010.048	0.000	10.533	0	0.000
215070.073	0.000	10.538	0	0.000
215130.042	0.000	10.545	0	0.000
215190.057	0.000	10.556	0	0.000
215250.086	0.000	10.568	0	0.000
215310.081	0.000	10.575	0	0.000
215370.055	0.000	10.586	0	0.000
215430.060	0.000	10.604	0	0.000
215490.074	0.000	10.617	0	0.000
215550.079	0.000	10.616	0	0.000
215610.038	0.000	10.630	0	0.000
215670.043	0.000	10.639	0	0.000
215730.057	0.000	10.650	0	0.000
215790.082	0.000	10.653	0	0.000
215850.061	0.000	10.658	0	0.000
215910.041	0.000	10.683	0	0.000
215970.075	0.000	10.690	0	0.000
216030.085	0.000	10.688	0	0.000
216090.059	0.000	10.693	0	0.000
216150.099	0.000	10.705	0	0.000
216210.083	0.000	10.721	0	0.000
216270.083	0.000	10.729	0	0.000
216330.072	0.000	10.720	0	0.000
216390.036	0.000	10.729	0	0.000
216450.051	0.000	10.747	0	0.000
216510.076	0.000	10.759	0	0.000
216570.060	0.000	10.756	0	0.000
216630.034	0.000	10.769	0	0.000
216690.079	0.000	10.776	0	0.000
216750.079	0.000	10.788	0	0.000
216810.073	0.000	10.782	0	0.000
216870.037	0.000	10.799	0	0.000
216930.077	0.000	10.809	0	0.000
216990.086	0.000	10.823	0	0.000
217050.066	0.000	10.822	0	0.000
217110.020	0.000	10.830	0	0.000
217170.050	0.000	10.837	0	0.000
217230.069	0.000	10.844	0	0.000
217290.059	0.000	10.847	0	0.000
217350.048	0.000	10.857	0	0.000
217410.063	0.000	10.865	0	0.000
217470.062	0.000	10.875	0	0.000
217530.047	0.000	10.877	0	0.000
217590.046	0.000	10.886	0	0.000
217650.046	0.000	10.897	0	0.000
217710.065	0.000	10.903	0	0.000
217770.095	0.000	10.907	0	0.000
217830.104	0.000	10.907	0	0.000
217890.053	0.000	10.923	0	0.000
217950.068	0.000	10.927	0	0.000
218010.093	0.000	10.929	0	0.000
218070.072	0.000	10.937	0	0.000
218130.047	0.000	10.945	0	0.000
218190.061	0.000	10.962	0	0.000
218250.076	0.000	10.957	0	0.000
218310.050	0.000	10.955	0	0.000
218370.034	0.000	10.966	0	0.000
218430.054	0.000	10.977	0	0.000
218490.053	0.000	10.977	0	0.000
218550.078	0.000	10.981	0	0.000
218610.092	0.000	11.001	0	0.000
218670.082	0.000	11.008	0	0.000
218730.081	0.000	11.013	0	0.000
218790.066	0.000	11.006	0	0.000
218850.055	0.000	11.015	0	0.000
218910.100	0.000	11.022	0	0.000
218970.084	0.000	11.037	0	0.000
219030.094	0.000	11.022	0	0.000
219090.083	0.000	11.049	0	0.000
219150.103	0.000	11.056	0	0.000
219210.077	0.000	11.067	0	0.000
219270.077	0.000	11.065	0	0.000
219330.066	0.000	11.070	0	0.000
219390.066	0.000	11.080	0	0.000
219450.060	0.000	11.086	0	0.000
219510.080	0.000	11.080	0	0.000
219570.054	0.000	11.090	0	0.000
219630.059	0.000	11.101	0	0.000
219690.048	0.000	11.110	0	0.000
219750.073	0.000	11.109	0	0.000
219810.061	0.000	11.114	0	0.000
219870.087	0.000	11.117	0	0.000
219930.086	0.000	11.130	0	0.000
219990.061	0.000	11.128	0	0.000
220050.044	0.000	11.139	0	0.000
220110.075	0.000	11.150	0	0.000
220170.069	0.000	11.167	0	0.000
220230.078	0.000	11.159	0	0.000
220290.057	0.000	11.167	0	0.000
220350.047	0.000	11.167	0	0.000
220410.041	0.000	11.181	0	0.000
220470.091	0.000	11.183	0	0.000
220530.076	0.000	11.183	0	0.000
220590.050	0.000	11.197	0	0.000
220650.085	0.000	11.211	0	0.000
220710.069	0.000	11.210	0	0.000
220770.048	0.000	11.213	0	0.000
220830.053	0.000	11.221	0	0.000
220890.063	0.000	11.222	0	0.000
220950.087	0.000	11.237	0	0.000
221010.052	0.000	11.227	0	0.000
221070.025	0.000	11.236	0	0.000
221130.040	0.000	11.243	0	0.000
221190.065	0.000	11.218	0	0.000
221250.049	0.000	11.214	0	0.000
221310.048	0.000	11.228	0	0.000
221370.063	0.000	11.226	0	0.000
221430.062	0.000	11.229	0	0.000
221490.032	0.000	11.229	0	0.000
221550.031	0.000	11.234	0	0.000
221610.051	0.000	11.252	0	0.000
221670.076	0.000	11.258	0	0.000
221730.086	0.000	11.253	0	0.000
221790.049	0.000	11.260	0	0.000
221850.045	0.000	11.270	0	0.000
221910.034	0.000	11.278	0	0.000
221970.054	0.000	11.274	0	0.000
222030.037	0.000	11.279	0	0.000
222090.052	0.000	11.294	0	0.000
222150.062	0.000	11.304	0	0.000
222210.086	0.000	11.297	0	0.000
222270.075	0.000	11.299	0	0.000
222330.054	0.000	11.309	0	0.000
222390.055	0.000	11.313	0	0.000
222450.059	0.000	11.302	0	0.000
222510.043	0.000	11.311	0	0.000
222570.032	0.000	11.323	0	0.000
222630.078	0.000	11.327	0	0.000
222690.067	0.000	11.326	0	0.000
222750.011	0.000	11.336	0	0.000
222810.046	0.000	11.342	0	0.000
222870.066	0.000	11.345	0	0.000
222930.065	0.000	11.344	0	0.000
222990.029	0.000	11.339	0	0.000
223050.028	0.000	11.347	0	0.000
223110.059	0.000	11.360	0	0.000
223170.058	0.000	11.364	0	0.000
223230.053	0.000	11.371	0	0.000
223290.057	0.000	11.371	0	0.000
223350.067	0.000	11.389	0	0.000
223410.066	0.000	11.380	0	0.000
223470.055	0.000	11.385	0	0.000
223530.064	0.000	11.391	0	0.000
223590.060	0.000	11.397	0	0.000
223650.074	0.000	11.404	0	0.000
223710.069	0.000	11.398	0	0.000
223770.042	0.000	11.406	0	0.000
223830.088	0.000	11.414	0	0.000
223890.052	0.000	11.420	0	0.000
223950.036	0.000	11.421	0	0.000
224010.071	0.000	11.433	0	0.000
224070.070	0.000	11.447	0	0.000
224130.050	0.000	11.447	0	0.000
224190.059	0.000	11.445	0	0.000
224250.038	0.000	11.450	0	0.000
224310.083	0.000	11.452	0	0.000
224370.098	0.000	11.462	0	0.000
224430.097	0.000	11.460	0	0.000
224490.061	0.000	11.469	0	0.000
224550.061	0.000	11.480	0	0.000
224610.061	0.000	11.485	0	0.000
224670.075	0.000	11.487	0	0.000
224730.065	0.000	11.482	0	0.000
224790.028	0.000	11.490	0	0.000
224850.054	0.000	11.494	0	0.000
224910.053	0.000	11.491	0	0.000
224970.041	0.000	11.495	0	0.000
225030.082	0.000	11.511	0	0.000
225090.067	0.000	11.519	0	0.000
225150.066	0.000	11.526	0	0.000
225210.056	0.000	11.515	0	0.000
225270.029	0.000	11.526	0	0.000
225330.028	0.000	11.539	0	0.000
225390.054	0.000	11.537	0	0.000
225450.027	0.000	11.530	0	0.000
225510.002	0.000	11.538	0	0.000
225570.041	0.000	11.540	0	0.000
225630.077	0.000	11.548	0	0.000
225690.066	0.000	11.551	0	0.000
225750.071	0.000	11.561	0	0.000
225810.055	0.000	11.568	0	0.000
225870.080	0.000	11.573	0	0.000
225930.079	0.000	11.573	0	0.000
225990.043	0.000	11.573	0	0.000
226050.067	0.000	11.582	0	0.000
226110.088	0.000	11.585	0	0.000
226170.087	0.000	11.586	0	0.000
226230.077	0.000	11.587	0	0.000
226290.041	0.000	11.596	0	0.000
226350.056	0.000	11.599	0	0.000
226410.090	0.000	11.601	0	0.000
226470.065	0.000	11.611	0	0.000
226530.029	0.000	11.619	0	0.000
226590.039	0.000	11.622	0	0.000
226650.053	0.000	11.621	0	0.000
226710.046	0.000	11.625	0	0.000
226770.067	0.000	11.633	0	0.000
226830.062	0.000	11.641	0	0.000
226890.081	0.000	11.639	0	0.000
226950.069	0.000	11.638	0	0.000
227010.079	0.000	11.649	0	0.000
227070.080	0.000	11.656	0	0.000
227130.079	0.000	11.661	0	0.000
227190.069	0.000	11.652	0	0.000
227250.042	0.000	11.664	0	0.000
227310.078	0.000	11.671	0	0.000
227370.057	0.000	11.682	0	0.000
227430.071	0.000	11.675	0	0.000
227490.045	0.000	11.688	0	0.000
227550.070	0.000	11.691	0	0.000
227610.055	0.000	11.699	0	0.000
227670.069	0.000	11.696	0	0.000
227730.042	0.000	11.700	0	0.000
227790.033	0.000	11.703	0	0.000
227850.063	0.000	11.715	0	0.000
227910.077	0.000	11.719	0	0.000
227970.087	0.000	11.722	0	0.000
228030.102	0.000	11.721	0	0.000
228090.054	0.000	11.729	0	0.000
228150.085	0.000	11.734	0	0.000
228210.080	0.000	11.732	0	0.000
228270.043	0.000	11.737	0	0.000
228330.069	0.000	11.744	0	0.000
228390.078	0.000	11.748	0	0.000
228450.078	0.000	11.750	0	0.000
228510.052	0.000	11.758	0	0.000
228570.052	0.000	11.764	0	0.000
228630.051	0.000	11.767	0	0.000
228690.051	0.000	11.771	0	0.000
228750.070	0.000	11.774	0	0.000
228810.085	0.000	11.783	0	0.000
228870.084	0.000	11.781	0	0.000
228930.062	0.000	11.781	0	0.000
228990.056	0.000	11.784	0	0.000
229050.053	0.000	11.798	0	0.000
229110.057	0.000	11.800	0	0.000
229170.071	0.000	11.795	0	0.000
229230.029	0.000	11.809	0	0.000
229290.080	0.000	11.816	0	0.000
229350.090	0.000	11.821	0	0.000
229410.079	0.000	11.816	0	0.000
229470.042	0.000	11.817	0	0.000
229530.017	0.000	11.823	0	0.000
229590.033	0.000	11.831	0	0.000
229650.042	0.000	11.831	0	0.000
229710.067	0.000	11.840	0	0.000
229770.096	0.000	11.851	0	0.000
229830.106	0.000	11.866	0	0.000
229890.090	0.000	11.852	0	0.000
229950.053	0.000	11.859	0	0.000
230010.038	0.000	11.867	0	0.000
230070.054	0.000	11.876	0	0.000
230130.043	0.000	11.871	0	0.000
230190.001	0.000	11.870	0	0.000
230250.010	0.000	11.884	0	0.000
230310.077	0.000	11.894	0	0.000
230370.106	0.000	11.897	0	0.000
230430.081	0.000	11.894	0	0.000
230490.028	0.000	11.904	0	0.000
230550.080	0.000	11.910	0	0.000
230610.104	0.000	11.912	0	0.000
230670.094	0.000	11.911	0	0.000
230730.041	0.000	11.922	0	0.000
230790.068	0.000	11.925	0	0.000
230850.067	0.000	11.928	0	0.000
230910.077	0.000	11.926	0	0.000
230970.039	0.000	11.938	0	0.000
231030.066	0.000	11.941	0	0.000
231090.065	0.000	11.948	0	0.000
231150.055	0.000	11.945	0	0.000
231210.032	0.000	11.950	0	0.000
231270.068	0.000	11.953	0	0.000
231330.078	0.000	11.957	0	0.000
231390.052	0.000	11.954	0	0.000
231450.050	0.000	11.957	0	0.000
231510.064	0.000	11.967	0	0.000
231570.066	0.000	11.971	0	0.000
231630.050	0.000	11.965	0	0.000
231690.023	0.000	11.970	0	0.000
231750.042	0.000	11.975	0	0.000
231810.069	0.000	11.976	0	0.000
231870.058	0.000	11.979	0	0.000
231930.063	0.000	11.992	0	0.000
231990.047	0.000	11.998	0	0.000
232050.072	0.000	12.005	0	0.000
232110.076	0.000	12.000	0	0.000
232170.019	0.000	12.005	0	0.000
232230.050	0.000	12.015	0	0.000
232290.065	0.000	12.014	0	0.000
232350.037	0.000	12.015	0	0.000
232410.027	0.000	12.019	0	0.000
232470.058	0.000	12.020	0	0.000
232530.068	0.000	12.025	0	0.000
232590.067	0.000	12.026	0	0.000
232650.057	0.000	12.023	0	0.000
232710.029	0.000	12.029	0	0.000
232770.070	0.000	12.035	0	0.000
232830.085	0.000	12.033	0	0.000
232890.032	0.000	12.033	0	0.000
232950.017	0.000	12.038	0	0.000
233010.053	0.000	12.045	0	0.000
233070.068	0.000	12.042	0	0.000
233130.055	0.000	12.044	0	0.000
233190.030	0.000	12.043	0	0.000
233250.004	0.000	12.056	0	0.000
233310.066	0.000	12.053	0	0.000
233370.048	0.000	12.046	0	0.000
233430.038	0.000	12.051	0	0.000
233490.052	0.000	12.055	0	0.000
233550.027	0.000	12.066	0	0.000
233610.058	0.000	12.062	0	0.000
233670.066	0.000	12.071	0	0.000
233730.077	0.000	12.068	0	0.000
233790.055	0.000	12.082	0	0.000
233850.096	0.000	12.077	0	0.000
233910.049	0.000	12.080	0	0.000
233970.048	0.000	12.091	0	0.000
234030.070	0.000	12.104	0	0.000
234090.044	0.000	12.097	0	0.000
234150.011	0.000	12.106	0	0.000
234210.063	0.000	12.111	0	0.000
234270.058	0.000	12.118	0	0.000
234330.057	0.000	12.115	0	0.000
234390.054	0.000	12.112	0	0.000
234450.054	0.000	12.120	0	0.000
234510.056	0.000	12.124	0	0.000
234570.055	0.000	12.120	0	0.000
234630.027	0.000	12.120	0	0.000
234690.027	0.000	12.126	0	0.000
234750.053	0.000	12.131	0	0.000
234810.053	0.000	12.126	0	0.000
234870.050	0.000	12.120	0	0.000
234930.035	0.000	12.130	0	0.000
234990.034	0.000	12.133	0	0.000
235050.081	0.000	12.126	0	0.000
235110.038	0.000	12.132	0	0.000
235170.012	0.000	12.138	0	0.000
235230.059	0.000	12.139	0	0.000
235290.079	0.000	12.136	0	0.000
235350.036	0.000	12.136	0	0.000
235410.025	0.000	12.142	0	0.000
235470.042	0.000	12.139	0	0.000
235530.014	0.000	12.143	0	0.000
235590.071	0.000	12.138	0	0.000
235650.043	0.000	12.144	0	0.000
235710.040	0.000	12.146	0	0.000
235770.030	0.000	12.150	0	0.000
235830.029	0.000	12.150	0	0.000
235890.059	0.000	12.157	0	0.000
235950.063	0.000	12.161	0	0.000
236010.073	0.000	12.164	0	0.000
236070.097	0.000	12.157	0	0.000
236130.069	0.000	12.160	0	0.000
236190.069	0.000	12.165	0	0.000
236250.071	0.000	12.172	0	0.000
236310.080	0.000	12.167	0	0.000
236370.077	0.000	12.170	0	0.000
236430.066	0.000	12.177	0	0.000
236490.068	0.000	12.176	0	0.000
236550.030	0.000	12.169	0	0.000
236610.045	0.000	12.167	0	0.000
236670.054	0.000	12.171	0	0.000
236730.029	0.000	12.177	0	0.000
236790.018	0.000	12.170	0	0.000
236850.033	0.000	12.179	0	0.000
236910.045	0.000	12.178	0	0.000
236970.027	0.000	12.183	0	0.000
237030.069	0.000	12.173	0	0.000
237090.056	0.000	12.171	0	0.000
237150.080	0.000	12.168	0	0.000
237210.045	0.000	12.175	0	0.000
237270.019	0.000	12.166	0	0.000
237330.054	0.000	12.169	0	0.000
237390.043	0.000	12.168	0	0.000
237450.028	0.000	12.175	0	0.000
237510.057	0.000	12.167	0	0.000
237570.052	0.000	12.173	0	0.000
237630.046	0.000	12.173	0	0.000
237690.056	0.000	12.183	0	0.000
237750.058	0.000	12.177	0	0.000
237810.004	0.000	12.180	0	0.000
237870.029	0.000	12.185	0	0.000
237930.056	0.000	12.188	0	0.000
237990.046	0.000	12.186	0	0.000
238050.032	0.000	12.186	0	0.000
238110.017	0.000	12.186	0	0.000
238170.006	0.000	12.182	0	0.000
238230.026	0.000	12.181	0	0.000
238290.035	0.000	12.188	0	0.000
238350.020	0.000	12.189	0	0.000
238410.047	0.000	12.189	0	0.000
238470.056	0.000	12.182	0	0.000
238530.038	0.000	12.181	0	0.000
238590.038	0.000	12.199	0	0.000
238650.055	0.000	12.194	0	0.000
238710.032	0.000	12.193	0	0.000
238770.021	0.000	12.197	0	0.000
238830.006	0.000	12.196	0	0.000
238890.035	0.000	12.195	0	0.000
238950.060	0.000	12.196	0	0.000
239010.039	0.000	12.198	0	0.000
239070.028	0.000	12.202	0	0.000
239130.046	0.000	12.193	0	0.000
239190.027	0.000	12.190	0	0.000
239250.027	0.000	12.192	0	0.000
239310.011	0.000	12.201	0	0.000
239370.011	0.000	12.195	0	0.000
239430.040	0.000	12.200	0	0.000
239490.055	0.000	12.200	0	0.000
239550.054	0.000	12.194	0	0.000
239610.054	0.000	12.184	0	0.000
239670.023	0.000	12.187	0	0.000
239730.023	0.000	12.193	0	0.000
239790.032	0.000	12.177	0	0.000
239850.022	0.000	12.181	0	0.000
239910.031	0.000	12.187	0	0.000
239970.051	0.000	12.186	0	0.000
240030.035	0.000	12.182	0	0.000
240090.030	0.000	12.180	0	0.000
240150.019	0.000	12.196	0	0.000
240210.034	0.000	12.193	0	0.000
240270.068	0.000	12.181	0	0.000
240330.052	0.000	12.187	0	0.000
240390.047	0.000	12.185	0	0.000
240450.061	0.000	12.190	0	0.000
240510.046	0.000	12.183	0	0.000
240570.035	0.000	12.177	0	0.000
240630.040	0.000	12.181	0	0.000
240690.064	0.000	12.182	0	0.000
240750.064	0.000	12.183	0	0.000
240810.048	0.000	12.181	0	0.000
240870.058	0.000	12.189	0	0.000
240930.057	0.000	12.181	0	0.000
240990.032	0.000	12.184	0	0.000
241050.031	0.000	12.188	0	0.000
241110.056	0.000	12.189	0	0.000
241170.030	0.000	12.180	0	0.000
241230.025	0.000	12.186	0	0.000
241290.034	0.000	12.191	0	0.000
241350.044	0.000	12.192	0	0.000
241410.038	0.000	12.189	0	0.000
241470.008	0.000	12.187	0	0.000
241530.017	0.000	12.187	0	0.000
241590.051	0.000	12.183	0	0.000
241650.061	0.000	12.183	0	0.000
241710.045	0.000	12.192	0	0.000
241770.045	0.000	12.198	0	0.000
241830.029	0.000	12.187	0	0.000
241890.019	0.000	12.190	0	0.000
241950.018	0.000	12.197	0	0.000
242010.033	0.000	12.192	0	0.000
242070.042	0.000	12.185	0	0.000
242130.017	0.000	12.199	0	0.000
242190.036	0.000	12.196	0	0.000
242250.051	0.000	12.188	0	0.000
242310.035	0.000	12.186	0	0.000
242370.045	0.000	12.188	0	0.000
242430.034	0.000	12.193	0	0.000
242490.034	0.000	12.188	0	0.000
242550.053	0.000	12.190	0	0.000
242610.058	0.000	12.208	0	0.000
242670.060	0.000	12.209	0	0.000
242730.030	0.000	12.206	0	0.000
242790.036	0.000	12.214	0	0.000
242850.074	0.000	12.216	0	0.000
242910.083	0.000	12.211	0	0.000
242970.059	0.000	12.210	0	0.000
243030.044	0.000	12.214	0	0.000
243090.048	0.000	12.213	0	0.000
243150.048	0.000	12.215	0	0.000
243210.067	0.000	12.219	0	0.000
243270.100	0.000	12.215	0	0.000
243330.036	0.000	12.208	0	0.000
243390.036	0.000	12.199	0	0.000
243450.035	0.000	12.201	0	0.000
243510.005	0.000	12.207	0	0.000
243570.034	0.000	11.888	0	0.000
243630.039	0.000	11.841	0	0.000
243690.013	0.000	11.835	0	0.000
243750.038	0.000	11.831	0	0.000
243810.047	0.000	11.819	0	0.000
243870.027	0.000	11.805	0	0.000
243930.016	0.000	11.805	0	0.000
243990.036	0.000	11.794	0	0.000
244050.035	0.000	11.776	0	0.000
244110.010	0.000	11.777	0	0.000
244170.024	0.000	11.774	0	0.000
244230.023	0.000	11.760	0	0.000
244290.008	0.000	11.750	0	0.000
244350.032	0.000	11.741	0	0.000
244410.042	0.000	11.733	0	0.000
244470.046	0.000	11.718	0	0.000
244530.051	0.000	11.713	0	0.000
244590.040	0.000	11.703	0	0.000
244650.025	0.000	11.698	0	0.000
244710.039	0.000	11.682	0	0.000
244770.069	0.000	11.678	0	0.000
244830.048	0.000	11.670	0	0.000
244890.043	0.000	11.669	0	0.000
244950.052	0.000	11.651	0	0.000
245010.032	0.000	11.655	0	0.000
245070.041	0.000	11.637	0	0.000
245130.051	0.000	11.624	0	0.000
245190.060	0.000	11.617	0	0.000
245250.050	0.000	11.609	0	0.000
245310.034	0.000	11.602	0	0.000
245370.044	0.000	11.582	0	0.000
245430.023	0.000	11.583	0	0.000
245490.027	0.000	11.582	0	0.000
245550.022	0.000	11.570	0	0.000
245610.021	0.000	11.560	0	0.000
245670.031	0.000	11.551	0	0.000
245730.035	0.000	11.550	0	0.000
245790.040	0.000	11.528	0	0.000
245850.044	0.000	11.526	0	0.000
245910.049	0.000	11.522	0	0.000
245970.053	0.000	11.526	0	0.000
246030.048	0.000	11.518	0	0.000
246090.047	0.000	11.507	0	0.000
246150.037	0.000	11.503	0	0.000
246210.006	0.000	11.489	0	0.000
246270.031	0.000	11.470	0	0.000
246330.050	0.000	11.460	0	0.000
246390.025	0.000	11.457	0	0.000
246450.024	0.000	11.435	0	0.000
246510.034	0.000	11.430	0	0.000
246570.018	0.000	11.423	0	0.000
246630.023	0.000	11.413	0	0.000
246690.047	0.000	11.406	0	0.000
246750.031	0.000	11.401	0	0.000
246810.006	0.000	11.389	0	0.000
246870.035	0.000	11.379	0	0.000
246930.050	0.000	11.372	0	0.000
246990.019	0.000	11.368	0	0.000
247050.009	0.000	11.360	0	0.000
247110.008	0.000	11.346	0	0.000
247170.003	0.000	11.346	0	0.000
247230.017	0.000	11.333	0	0.000
247290.017	0.000	11.329	0	0.000
247350.016	0.000	11.319	0	0.000
247410.046	0.000	11.309	0	0.000
247470.045	0.000	11.299	0	0.000
247530.020	0.000	11.287	0	0.000
247590.024	0.000	11.280	0	0.000
247650.049	0.000	11.280	0	0.000
247710.038	0.000	11.279	0	0.000
247770.013	0.000	11.268	0	0.000
247830.007	0.000	11.266	0	0.000
247890.037	0.000	11.252	0	0.000
247950.036	0.000	11.242	0	0.000
248010.006	0.000	11.220	0	0.000
248070.005	0.000	11.222	0	0.000
248130.004	0.000	11.215	0	0.000
248190.044	0.000	11.203	0	0.000
248250.048	0.000	11.190	0	0.000
248310.013	0.000	11.190	0	0.000
248370.037	0.000	11.190	0	0.000
248430.052	0.000	11.180	0	0.000
248490.031	0.000	11.167	0	0.000
248550.041	0.000	11.160	0	0.000
248610.065	0.000	11.146	0	0.000
248670.055	0.000	11.140	0	0.000
248730.049	0.000	11.130	0	0.000
248790.034	0.000	11.127	0	0.000
248850.023	0.000	11.113	0	0.000
248910.038	0.000	11.104	0	0.000
248970.047	0.000	11.100	0	0.000
249030.062	0.000	11.093	0	0.000
249090.051	0.000	11.080	0	0.000
249150.021	0.000	11.078	0	0.000
249210.005	0.000	11.061	0	0.000
249270.035	0.000	11.059	0	0.000
249330.039	0.000	11.050	0	0.000
249390.028	0.000	11.045	0	0.000
249450.058	0.000	11.046	0	0.000
249510.052	0.000	11.033	0	0.000
249570.037	0.000	11.012	0	0.000
249630.036	0.000	11.010	0	0.000
249690.016	0.000	11.000	0	0.000
249750.030	0.000	10.992	0	0.000
249810.045	0.000	10.987	0	0.000
249870.049	0.000	10.985	0	0.000
249930.039	0.000	10.977	0	0.000
249990.023	0.000	10.967	0	0.000
250050.053	0.000	10.964	0	0.000
250110.067	0.000	10.948	0	0.000
250170.052	0.000	10.939	0	0.000
250230.026	0.000	10.927	0	0.000
250290.041	0.000	10.928	0	0.000
250350.040	0.000	10.921	0	0.000
250410.025	0.000	10.916	0	0.000
250470.054	0.000	10.898	0	0.000
250530.059	0.000	10.897	0	0.000
250590.038	0.000	10.886	0	0.000
250650.022	0.000	10.874	0	0.000
250710.022	0.000	10.870	0	0.000
250770.046	0.000	10.868	0	0.000
250830.066	0.000	10.855	0	0.000
250890.075	0.000	10.840	0	0.000
250950.060	0.000	10.836	0	0.000
251010.034	0.000	10.830	0	0.000
251070.044	0.000	10.814	0	0.000
251130.033	0.000	10.805	0	0.000
251190.008	0.000	10.799	0	0.000
251250.007	0.000	10.798	0	0.000
251310.037	0.000	10.780	0	0.000
251370.051	0.000	10.775	0	0.000
251430.051	0.000	10.777	0	0.000
251490.065	0.000	10.764	0	0.000
251550.065	0.000	10.755	0	0.000
251610.054	0.000	10.750	0	0.000
251670.044	0.000	10.749	0	0.000
251730.043	0.000	10.724	0	0.000
251790.053	0.000	10.721	0	0.000
251850.062	0.000	10.717	0	0.000
251910.046	0.000	10.705	0	0.000
251970.046	0.000	10.697	0	0.000
252030.036	0.000	10.690	0	0.000
252090.020	0.000	10.690	0	0.000
252150.044	0.000	10.692	0	0.000
252210.049	0.000	10.677	0	0.000
252270.053	0.000	10.671	0	0.000
252330.043	0.000	10.655	0	0.000
252390.027	0.000	10.640	0	0.000
252450.032	0.000	10.632	0	0.000
252510.021	0.000	10.630	0	0.000
252570.026	0.000	10.621	0	0.000
252630.025	0.000	10.610	0	0.000
252690.025	0.000	10.610	0	0.000
252750.049	0.000	10.604	0	0.000
252810.054	0.000	10.594	0	0.000
252870.053	0.000	10.584	0	0.000
252930.063	0.000	10.580	0	0.000
252990.067	0.000	10.568	0	0.000
253050.072	0.000	10.552	0	0.000
253110.041	0.000	10.545	0	0.000
253170.020	0.000	10.550	0	0.000
253230.050	0.000	10.539	0	0.000
253290.054	0.000	10.524	0	0.000
253350.054	0.000	10.524	0	0.000
253410.053	0.000	10.525	0	0.000
253470.038	0.000	10.509	0	0.000
253530.037	0.000	10.502	0	0.000
253590.047	0.000	10.500	0	0.000
253650.061	0.000	10.491	0	0.000
253710.041	0.000	10.487	0	0.000
253770.040	0.000	10.476	0	0.000
253830.065	0.000	10.453	0	0.000
253890.064	0.000	10.450	0	0.000
253950.049	0.000	10.450	0	0.000
254010.033	0.000	10.435	0	0.000
254070.038	0.000	10.420	0	0.000
254130.042	0.000	10.426	0	0.000
254190.042	0.000	10.418	0	0.000
254250.051	0.000	10.405	0	0.000
254310.046	0.000	10.400	0	0.000
254370.045	0.000	10.393	0	0.000
254430.050	0.000	10.380	0	0.000
254490.039	0.000	10.370	0	0.000
254550.058	0.000	10.370	0	0.000
254610.058	0.000	10.353	0	0.000
254670.022	0.000	10.342	0	0.000
254730.012	0.000	10.340	0	0.000
254790.026	0.000	10.330	0	0.000
254850.036	0.000	10.320	0	0.000
254910.040	0.000	10.312	0	0.000
254970.040	0.000	10.307	0	0.000
255030.054	0.000	10.293	0	0.000
255090.044	0.000	10.285	0	0.000
255150.013	0.000	10.280	0	0.000
255210.043	0.000	10.261	0	0.000
255270.042	0.000	10.260	0	0.000
255330.037	0.000	10.254	0	0.000
255390.066	0.000	10.240	0	0.000
255450.056	0.000	10.240	0	0.000
255510.045	0.000	10.231	0	0.000
255570.060	0.000	10.219	0	0.000
255630.039	0.000	10.201	0	0.000
255690.009	0.000	10.200	0	0.000
255750.033	0.000	10.191	0	0.000
255810.047	0.000	10.180	0	0.000
255870.047	0.000	10.176	0	0.000
255930.066	0.000	10.156	0	0.000
255990.046	0.000	10.152	0	0.000
256050.015	0.000	10.160	0	0.000
256110.040	0.000	10.148	0	0.000
256170.064	0.000	10.134	0	0.000
256230.054	0.000	10.130	0	0.000
256290.043	0.000	10.121	0	0.000
256350.043	0.000	10.109	0	0.000
256410.042	0.000	10.100	0	0.000
256470.027	0.000	10.088	0	0.000
256530.026	0.000	10.073	0	0.000
256590.041	0.000	10.070	0	0.000
256650.040	0.000	10.072	0	0.000
256710.050	0.000	10.073	0	0.000
256770.034	0.000	10.063	0	0.000
256830.014	0.000	10.050	0	0.000
256890.018	0.000	10.039	0	0.000
256950.043	0.000	10.028	0	0.000
257010.067	0.000	10.020	0	0.000
257070.066	0.000	10.011	0	0.000
257130.056	0.000	10.000	0	0.000
257190.045	0.000	9.997	0	0.000
257250.040	0.000	9.993	0	0.000
257310.049	0.000	9.993	0	0.000
257370.049	0.000	9.980	0	0.000
257430.023	0.000	9.978	0	0.000
257490.038	0.000	9.960	0	0.000
257550.047	0.000	9.957	0	0.000
257610.022	0.000	9.949	0	0.000
257670.026	0.000	9.933	0	0.000
257730.056	0.000	9.930	0	0.000
257790.040	0.000	9.922	0	0.000
257850.030	0.000	9.913	0	0.000
257910.059	0.000	9.901	0	0.000
257970.049	0.000	9.900	0	0.000
258030.033	0.000	9.900	0	0.000
258090.058	0.000	9.906	0	0.000
258150.042	0.000	9.893	0	0.000
258210.007	0.000	9.882	0	0.000
258270.006	0.000	9.866	0	0.000
258330.020	0.000	9.860	0	0.000
258390.030	0.000	9.850	0	0.000
258450.019	0.000	9.840	0	0.000
258510.044	0.000	9.830	0	0.000
258570.048	0.000	9.830	0	0.000
258630.048	0.000	9.818	0	0.000
258690.067	0.000	9.810	0	0.000
258750.042	0.000	9.810	0	0.000
258810.046	0.000	9.805	0	0.000
258870.056	0.000	9.797	0	0.000
258930.035	0.000	9.788	0	0.000
258990.020	0.000	9.781	0	0.000
259050.009	0.000	9.770	0	0.000
259110.014	0.000	9.770	0	0.000
259170.043	0.000	9.755	0	0.000
259230.073	0.000	9.740	0	0.000
259290.057	0.000	9.740	0	0.000
259350.037	0.000	9.737	0	0.000
259410.041	0.000	9.730	0	0.000
259470.051	0.000	9.720	0	0.000
259530.045	0.000	9.720	0	0.000
259590.039	0.000	9.710	0	0.000
259650.059	0.000	9.703	0	0.000
259710.068	0.000	9.698	0	0.000
259770.068	0.000	9.684	0	0.000
259830.042	0.000	9.677	0	0.000
259890.027	0.000	9.670	0	0.000
